{
  "resourceType": "Bundle",
  "id": "PaulinePolyanski",
  "type": "collection",
  "entry": [
    {
      "resource": {
        "resourceType": "Patient",
        "id": "PaulinePolyanski",
        "identifier": [
          {
            "value": "123-345-567",
            "type": {
              "coding": [
                {
                  "code": "MR",
                  "display": "Medical Record Number"
                }
              ]
            }
          }
        ],
        "name": [
          {
            "given": [
              "Pauline"
            ],
            "family": "Polyasnki"
          }
        ],
        "gender": "female",
        "birthDate": "1978-04-10",
        "extension": [
          {
            "url": "http://hl7.org/fhir/us/core/StructureDefinition/us-core-race",
            "extension": [
              {
                "url": "text",
                "valueString": "Black or African American"
              }
            ]
          },
          {
            "url": "http://hl7.org/fhir/us/core/StructureDefinition/us-core-ethnicity",
            "extension": [
              {
                "url": "text",
                "valueString": "Not Hispanic or Latino"
              }
            ]
          }
        ]
      }
    },
    {
      "resource": {
        "resourceType": "DiagnosticReport",
        "id": "colonoscopy-report-with-followup",
        "subject": {
          "reference": "Patient/PaulinePolyanski"
        },
        "status": "final",
        "code": {
          "coding": [
            {
              "system": "http://loinc.org",
              "code": "18746-8",
              "display": "Colonoscopy study"
            }
          ]
        },
        "result": [
          {
            "reference": "Observation/observation-1"
          },
          {
            "reference": "Observation/observation-2"
          }
        ],
        "effectiveDateTime": "2024-02-18T00:00:00.000Z"
      }
    },
    {
      "resource": {
        "resourceType": "Observation",
        "id": "observation-1",
        "subject": {
          "reference": "Patient/PaulinePolyanski"
        },
        "status": "final",
        "code": {
          "coding": [
            {
              "system": "http://snomed.info/sct",
              "code": "470191000124102",
              "display": "Colorectal cancer screening follow-up planning (procedure)"
            }
          ]
        },
        "valueQuantity": {
          "value": 3,
          "unit": "years",
          "code": "a",
          "system": "http://unitsofmeasure.org"
        },
        "effectiveDateTime": "2024-02-18T00:00:00.000Z"
      }
    },
    {
      "resource": {
        "resourceType": "Observation",
        "id": "observation-2",
        "subject": {
          "reference": "Patient/PaulinePolyanski"
        },
        "status": "final",
        "code": {
          "coding": [
            {
              "system": "http://loinc.org",
              "code": "18746-8",
              "display": "Colonoscopy study"
            }
          ]
        },
        "valueCodeableConcept": {
          "coding": [
            {
              "system": "http://snomed.info/sct",
              "code": "428054006",
              "display": "Adenomatous polyp of colon (disorder)"
            }
          ]
        },
        "effectiveDateTime": "2024-02-18T00:00:00.000Z"
      }
    },
    {
      "resource": {
        "resourceType": "DiagnosticReport",
        "id": "fit-report-pos",
        "subject": {
          "reference": "Patient/PaulinePolyanski"
        },
        "status": "final",
        "code": {
          "coding": [
            {
              "system": "http://loinc.org",
              "code": "29771-3",
              "display": "Hemoglobin.gastrointestinal.lower [Presence] in Stool by Immunoassay"
            }
          ]
        },
        "conclusionCode": [
          {
            "coding": [
              {
                "system": "http://snomed.info/sct",
                "code": "10828004",
                "display": "Positive (qualifier value)"
              }
            ]
          }
        ],
        "effectiveDateTime": "2023-12-04T00:00:00.000Z"
      }
    }
  ]
}