{
  "resourceType" : "Bundle",
  "id" : "USPSTFAvgRisk_eve-AgeOver45_yes_eve-priorScreeningExists_yes_act-determineDueDate",
  "type" : "collection",
  "entry" : [{
    "fullUrl" : "http://cancerscreeningcds.github.io/crcsm-cds/CarePlan/245",
    "resource" : {
      "resourceType" : "CarePlan",
      "id" : "245",
      "text" : {
        "status" : "generated",
        "div" : "<div xmlns=\"http://www.w3.org/1999/xhtml\"><a name=\"CarePlan_245\"> </a><p class=\"res-header-id\"><b>Generated Narrative: CarePlan 245</b></p><a name=\"245\"> </a><a name=\"hc245\"> </a><a name=\"245-en-US\"> </a><p><b>instantiatesCanonical</b>: <a href=\"PlanDefinition-flow-USPSTFAvgRisk.html\">Average Risk</a></p><p><b>status</b>: Draft</p><p><b>intent</b>: Proposal</p><p><b>subject</b>: <a href=\"Patient/6fbb0b77-0a7d-44a5-819f-ac7edaf0f91f\">Joanne Smith</a></p><p><b>created</b>: 2024-12-10 00:00:00+0000</p><h3>Activities</h3><table class=\"grid\"><tr><td style=\"display: none\">-</td><td><b>Reference</b></td></tr><tr><td style=\"display: none\">*</td><td><a href=\"Bundle-USPSTFAvgRisk_eve-AgeOver45_yes_eve-priorScreeningExists_yes_act-determineDueDate.html#RequestGroup_246\">Bundle: type = collection</a></td></tr></table></div>"
      },
      "instantiatesCanonical" : ["http://cancerscreeningcds.github.io/crcsm-cds/PlanDefinition/flow-USPSTFAvgRisk"],
      "status" : "draft",
      "intent" : "proposal",
      "subject" : {
        "reference" : "Patient/6fbb0b77-0a7d-44a5-819f-ac7edaf0f91f",
        "display" : "Joanne Smith"
      },
      "created" : "2024-12-10T00:00:00.0Z",
      "activity" : [{
        "reference" : {
          "reference" : "RequestGroup/246"
        }
      }]
    }
  },
  {
    "fullUrl" : "http://cancerscreeningcds.github.io/crcsm-cds/RequestGroup/246",
    "resource" : {
      "resourceType" : "RequestGroup",
      "id" : "246",
      "text" : {
        "status" : "generated",
        "div" : "<div xmlns=\"http://www.w3.org/1999/xhtml\"><a name=\"RequestGroup_246\"> </a><p class=\"res-header-id\"><b>Generated Narrative: RequestGroup 246</b></p><a name=\"246\"> </a><a name=\"hc246\"> </a><a name=\"246-en-US\"> </a><p><b>instantiatesCanonical</b>: <a href=\"PlanDefinition-flow-USPSTFAvgRisk.html\">Average Risk</a></p><p><b>status</b>: Draft</p><p><b>intent</b>: Proposal</p><p><b>subject</b>: <a href=\"Patient/6fbb0b77-0a7d-44a5-819f-ac7edaf0f91f\">Joanne Smith</a></p><blockquote><p><b>action</b></p><blockquote><p><b>id</b></p>ContinueRoutineScreening</blockquote><p><b>title</b>: Continue routine screening</p><p><b>description</b>: Continue routine screening.\n\nScreening strategies and intervals recommended for average risk patients include:\n* Colonoscopy every 10 years\n* High-sensitivity gFOBT or FIT every year\n* sDNA-FIT every 1 to 3 years\n* CT colonography every 5 years\n* Flexible sigmoidoscopy every 5 years\n* Flexible sigmoidoscopy every 10 years + FIT every year</p><p><b>code</b>: <span title=\"Codes:{http://snomed.info/sct 268548003}\">Screening for malignant neoplasm of large intestine (procedure)</span></p><h3>Documentations</h3><table class=\"grid\"><tr><td style=\"display: none\">-</td><td><b>Type</b></td><td><b>Label</b></td><td><b>Display</b></td><td><b>Citation</b></td><td><b>Url</b></td></tr><tr><td style=\"display: none\">*</td><td>Citation</td><td>USPSTF (2021)</td><td>Screening for Colorectal Cancer: US Preventive Services Task Force Recommendation Statement</td><td><div><p>US Preventive Services Task Force. Screening for Colorectal Cancer: US Preventive Services Task Force Recommendation Statement. JAMA. Published online May 18, 2021.</p>\n</div></td><td><a href=\"https://www.uspreventiveservicestaskforce.org/uspstf/recommendation/colorectal-cancer-screening\">https://www.uspreventiveservicestaskforce.org/uspstf/recommendation/colorectal-cancer-screening</a></td></tr></table><p><b>timing</b>: Events: 2034-10-01 14:30:00+0000 , Once</p><p><b>resource</b>: <a href=\"Bundle-USPSTFAvgRisk_eve-AgeOver45_yes_eve-priorScreeningExists_yes_act-determineDueDate.html#ServiceRequest_247\">Bundle: type = collection</a></p></blockquote></div>"
      },
      "instantiatesCanonical" : ["http://cancerscreeningcds.github.io/crcsm-cds/PlanDefinition/flow-USPSTFAvgRisk"],
      "status" : "draft",
      "intent" : "proposal",
      "subject" : {
        "reference" : "Patient/6fbb0b77-0a7d-44a5-819f-ac7edaf0f91f",
        "display" : "Joanne Smith"
      },
      "action" : [{
        "id" : "ContinueRoutineScreening",
        "title" : "Continue routine screening",
        "description" : "Continue routine screening.\n\nScreening strategies and intervals recommended for average risk patients include:\n* Colonoscopy every 10 years\n* High-sensitivity gFOBT or FIT every year\n* sDNA-FIT every 1 to 3 years\n* CT colonography every 5 years\n* Flexible sigmoidoscopy every 5 years\n* Flexible sigmoidoscopy every 10 years + FIT every year",
        "code" : [{
          "coding" : [{
            "system" : "http://snomed.info/sct",
            "code" : "268548003",
            "display" : "Screening for malignant neoplasm of large intestine (procedure)"
          }]
        }],
        "documentation" : [{
          "type" : "citation",
          "label" : "USPSTF (2021)",
          "display" : "Screening for Colorectal Cancer: US Preventive Services Task Force Recommendation Statement",
          "citation" : "US Preventive Services Task Force. Screening for Colorectal Cancer: US Preventive Services Task Force Recommendation Statement. JAMA. Published online May 18, 2021.",
          "url" : "https://www.uspreventiveservicestaskforce.org/uspstf/recommendation/colorectal-cancer-screening"
        }],
        "timingTiming" : {
          "event" : ["2034-10-01T14:30:00.000+00:00"],
          "repeat" : {
            "boundsPeriod" : {
              "start" : "2016-01-01"
            }
          }
        },
        "resource" : {
          "reference" : "ServiceRequest/247"
        }
      }]
    }
  },
  {
    "fullUrl" : "http://cancerscreeningcds.github.io/crcsm-cds/ServiceRequest/247",
    "resource" : {
      "resourceType" : "ServiceRequest",
      "id" : "247",
      "text" : {
        "status" : "generated",
        "div" : "<div xmlns=\"http://www.w3.org/1999/xhtml\"><a name=\"ServiceRequest_247\"> </a><p class=\"res-header-id\"><b>Generated Narrative: ServiceRequest 247</b></p><a name=\"247\"> </a><a name=\"hc247\"> </a><a name=\"247-en-US\"> </a><p><b>basedOn</b>: <a href=\"ActivityDefinition-ColorectalCancerScreeningServiceRequest.html\">Colorectal Cancer Screening Service Request</a></p><p><b>status</b>: option</p><p><b>intent</b>: Proposal</p><p><b>code</b>: <span title=\"Codes:{http://snomed.info/sct 268548003}\">Screening for malignant neoplasm of large intestine (procedure)</span></p><p><b>subject</b>: <a href=\"Patient/6fbb0b77-0a7d-44a5-819f-ac7edaf0f91f\">Joanne Smith</a></p><p><b>occurrence</b>: 2034-10-01 14:30:00+0000</p><p><b>reasonCode</b>: <span title=\"Codes:{http://cancerscreeningcds.github.io/crcsm-cds/CodeSystem/plan-definition-action-reason-code-system USPSTFaveragerisk}\">USPSTF average risk</span></p></div>"
      },
      "basedOn" : [{
        "reference" : "http://cancerscreeningcds.github.io/crcsm-cds/ActivityDefinition/ColorectalCancerScreeningServiceRequest"
      }],
      "status" : "option",
      "intent" : "proposal",
      "code" : {
        "coding" : [{
          "system" : "http://snomed.info/sct",
          "code" : "268548003",
          "display" : "Screening for malignant neoplasm of large intestine (procedure)"
        }]
      },
      "subject" : {
        "reference" : "Patient/6fbb0b77-0a7d-44a5-819f-ac7edaf0f91f",
        "display" : "Joanne Smith"
      },
      "occurrenceDateTime" : "2034-10-01T14:30:00.000+00:00",
      "reasonCode" : [{
        "coding" : [{
          "system" : "http://cancerscreeningcds.github.io/crcsm-cds/CodeSystem/plan-definition-action-reason-code-system",
          "code" : "USPSTFaveragerisk",
          "display" : "USPSTF average risk"
        }]
      }]
    }
  }]
}