<?xml version="1.0" encoding="UTF-8"?>

<Bundle xmlns="http://hl7.org/fhir">
  <id value="FollowUp_eve-lastTestColonoscopy_no_eve-lastTestStool_yes_eve-inconclusiveStoolTest_yes_act-repeatScreening"/>
  <type value="collection"/>
  <entry>
    <fullUrl value="http://cancerscreeningcds.github.io/crcsm-cds/CarePlan/160"/>
    <resource>
      <CarePlan>
        <id value="160"/>
        <text>
          <status value="generated"/><div xmlns="http://www.w3.org/1999/xhtml"><a name="CarePlan_160"> </a><p class="res-header-id"><b>Generated Narrative: CarePlan 160</b></p><a name="160"> </a><a name="hc160"> </a><a name="160-en-US"> </a><p><b>instantiatesCanonical</b>: <a href="PlanDefinition-flow-FollowUp.html">Follow Up</a></p><p><b>status</b>: Draft</p><p><b>intent</b>: Proposal</p><p><b>subject</b>: <a href="Bundle-eve-lastTestColonoscopy_no_eve-lastTestStool_yes_eve-inconclusiveStoolTest_yes_act-repeatScreening.html#Patient_d818dc51-79b8-4ccc-b9e3-3f52f48ad902">Joanne Smith</a></p><p><b>created</b>: 2024-12-10 00:00:00+0000</p><h3>Activities</h3><table class="grid"><tr><td style="display: none">-</td><td><b>Reference</b></td></tr><tr><td style="display: none">*</td><td><a href="Bundle-FollowUp_eve-lastTestColonoscopy_no_eve-lastTestStool_yes_eve-inconclusiveStoolTest_yes_act-repeatScreening.html#RequestGroup_161">Bundle: type = collection</a></td></tr></table></div>
        </text>
        <instantiatesCanonical value="http://cancerscreeningcds.github.io/crcsm-cds/PlanDefinition/flow-FollowUp"/>
        <status value="draft"/>
        <intent value="proposal"/>
        <subject>
          <reference value="Patient/d818dc51-79b8-4ccc-b9e3-3f52f48ad902"/>
          <display value="Joanne Smith"/>
        </subject>
        <created value="2024-12-10T00:00:00.0Z"/>
        <activity>
          <reference>
            <reference value="RequestGroup/161"/>
          </reference>
        </activity>
      </CarePlan>
    </resource>
  </entry>
  <entry>
    <fullUrl value="http://cancerscreeningcds.github.io/crcsm-cds/RequestGroup/161"/>
    <resource>
      <RequestGroup>
        <id value="161"/>
        <text>
          <status value="extensions"/><div xmlns="http://www.w3.org/1999/xhtml"><a name="RequestGroup_161"> </a><p class="res-header-id"><b>Generated Narrative: RequestGroup 161</b></p><a name="161"> </a><a name="hc161"> </a><a name="161-en-US"> </a><p><b>instantiatesCanonical</b>: <a href="PlanDefinition-flow-FollowUp.html">Follow Up</a></p><p><b>status</b>: Draft</p><p><b>intent</b>: Proposal</p><p><b>subject</b>: <a href="Bundle-eve-lastTestColonoscopy_no_eve-lastTestStool_yes_eve-inconclusiveStoolTest_yes_act-repeatScreening.html#Patient_d818dc51-79b8-4ccc-b9e3-3f52f48ad902">Joanne Smith</a></p><blockquote><p><b>action</b></p><blockquote><p><b>id</b></p>FollowupStoolInconclusiveResult</blockquote><p><b>io/crcsm-cds/StructureDefinition/csm-recommendation-flag</b>: <span title="Codes:{http://cancerscreeningcds.github.io/crcsm-cds/CodeSystem/recommendation-flag-code-system due}">Due</span></p><p><b>title</b>: Repeat screening due to inconclusive stool result</p><p><b>description</b>: Repeat screening due to inconclusive test results.</p><p><b>code</b>: <span title="Codes:{http://snomed.info/sct 268548003}">Screening for malignant neoplasm of large intestine (procedure)</span></p><p><b>timing</b>: Events: 2024-10-01 14:30:00+0000 </p><p><b>resource</b>: <a href="Bundle-FollowUp_eve-lastTestColonoscopy_no_eve-lastTestStool_yes_eve-inconclusiveStoolTest_yes_act-repeatScreening.html#ServiceRequest_162">Bundle: type = collection</a></p></blockquote></div>
        </text>
        <instantiatesCanonical value="http://cancerscreeningcds.github.io/crcsm-cds/PlanDefinition/flow-FollowUp"/>
        <status value="draft"/>
        <intent value="proposal"/>
        <subject>
          <reference value="Patient/d818dc51-79b8-4ccc-b9e3-3f52f48ad902"/>
          <display value="Joanne Smith"/>
        </subject>
        <action id="FollowupStoolInconclusiveResult">
          <extension url="http://cancerscreeningcds.github.io/crcsm-cds/StructureDefinition/csm-recommendation-flag">
            <valueCodeableConcept>
              <coding>
                <system value="http://cancerscreeningcds.github.io/crcsm-cds/CodeSystem/recommendation-flag-code-system"/>
                <code value="due"/>
                <display value="Due"/>
              </coding>
            </valueCodeableConcept>
          </extension>
          <title value="Repeat screening due to inconclusive stool result"/>
          <description value="Repeat screening due to inconclusive test results."/>
          <code>
            <coding>
              <system value="http://snomed.info/sct"/>
              <code value="268548003"/>
              <display value="Screening for malignant neoplasm of large intestine (procedure)"/>
            </coding>
          </code>
          <timingTiming>
            <event value="2024-10-01T14:30:00.000+00:00"/>
          </timingTiming>
          <resource>
            <reference value="ServiceRequest/162"/>
          </resource>
        </action>
      </RequestGroup>
    </resource>
  </entry>
  <entry>
    <fullUrl value="http://cancerscreeningcds.github.io/crcsm-cds/ServiceRequest/162"/>
    <resource>
      <ServiceRequest>
        <id value="162"/>
        <text>
          <status value="generated"/><div xmlns="http://www.w3.org/1999/xhtml"><a name="ServiceRequest_162"> </a><p class="res-header-id"><b>Generated Narrative: ServiceRequest 162</b></p><a name="162"> </a><a name="hc162"> </a><a name="162-en-US"> </a><p><b>basedOn</b>: <a href="ActivityDefinition-ColorectalCancerScreeningServiceRequest.html">Colorectal Cancer Screening Service Request</a></p><p><b>status</b>: option</p><p><b>intent</b>: Proposal</p><p><b>code</b>: <span title="Codes:{http://snomed.info/sct 268548003}">Screening for malignant neoplasm of large intestine (procedure)</span></p><p><b>subject</b>: <a href="Bundle-eve-lastTestColonoscopy_no_eve-lastTestStool_yes_eve-inconclusiveStoolTest_yes_act-repeatScreening.html#Patient_d818dc51-79b8-4ccc-b9e3-3f52f48ad902">Joanne Smith</a></p><p><b>occurrence</b>: 2024-10-01 14:30:00+0000</p><p><b>reasonCode</b>: <span title="Codes:{http://cancerscreeningcds.github.io/crcsm-cds/CodeSystem/plan-definition-action-reason-code-system inconclusivescreening}">Inconclusive non-colonoscopy screening</span></p></div>
        </text>
        <basedOn>
          <reference value="http://cancerscreeningcds.github.io/crcsm-cds/ActivityDefinition/ColorectalCancerScreeningServiceRequest"/>
        </basedOn>
        <status value="option"/>
        <intent value="proposal"/>
        <code>
          <coding>
            <system value="http://snomed.info/sct"/>
            <code value="268548003"/>
            <display value="Screening for malignant neoplasm of large intestine (procedure)"/>
          </coding>
        </code>
        <subject>
          <reference value="Patient/d818dc51-79b8-4ccc-b9e3-3f52f48ad902"/>
          <display value="Joanne Smith"/>
        </subject>
        <occurrenceDateTime value="2024-10-01T14:30:00.000+00:00"/>
        <reasonCode>
          <coding>
            <system value="http://cancerscreeningcds.github.io/crcsm-cds/CodeSystem/plan-definition-action-reason-code-system"/>
            <code value="inconclusivescreening"/>
            <display value="Inconclusive non-colonoscopy screening"/>
          </coding>
        </reasonCode>
      </ServiceRequest>
    </resource>
  </entry>
</Bundle>