{
  "resourceType" : "Bundle",
  "id" : "FollowUp_eve-lastTestColonoscopy_yes_eve-colonoscopyFindingCRC_yes_act-oncologyReferral",
  "type" : "collection",
  "entry" : [{
    "fullUrl" : "http://cancerscreeningcds.github.io/crcsm-cds/CarePlan/172",
    "resource" : {
      "resourceType" : "CarePlan",
      "id" : "172",
      "text" : {
        "status" : "generated",
        "div" : "<div xmlns=\"http://www.w3.org/1999/xhtml\"><a name=\"CarePlan_172\"> </a><p class=\"res-header-id\"><b>Generated Narrative: CarePlan 172</b></p><a name=\"172\"> </a><a name=\"hc172\"> </a><a name=\"172-en-US\"> </a><p><b>instantiatesCanonical</b>: <a href=\"PlanDefinition-flow-FollowUp.html\">Follow Up</a></p><p><b>status</b>: Draft</p><p><b>intent</b>: Proposal</p><p><b>subject</b>: <a href=\"Bundle-eve-lastTestColonoscopy_yes_eve-colonoscopyFindingCRC_yes_act-oncologyReferral.html#Patient_6573b6a7-9936-4a23-bf1a-0ec00b1e2a9d\">Joanne Smith</a></p><p><b>created</b>: 2024-12-10 00:00:00+0000</p><h3>Activities</h3><table class=\"grid\"><tr><td style=\"display: none\">-</td><td><b>Reference</b></td></tr><tr><td style=\"display: none\">*</td><td><a href=\"Bundle-FollowUp_eve-lastTestColonoscopy_yes_eve-colonoscopyFindingCRC_yes_act-oncologyReferral.html#RequestGroup_173\">Bundle: type = collection</a></td></tr></table></div>"
      },
      "instantiatesCanonical" : ["http://cancerscreeningcds.github.io/crcsm-cds/PlanDefinition/flow-FollowUp"],
      "status" : "draft",
      "intent" : "proposal",
      "subject" : {
        "reference" : "Patient/6573b6a7-9936-4a23-bf1a-0ec00b1e2a9d",
        "display" : "Joanne Smith"
      },
      "created" : "2024-12-10T00:00:00.0Z",
      "activity" : [{
        "reference" : {
          "reference" : "RequestGroup/173"
        }
      }]
    }
  },
  {
    "fullUrl" : "http://cancerscreeningcds.github.io/crcsm-cds/RequestGroup/173",
    "resource" : {
      "resourceType" : "RequestGroup",
      "id" : "173",
      "text" : {
        "status" : "extensions",
        "div" : "<div xmlns=\"http://www.w3.org/1999/xhtml\"><a name=\"RequestGroup_173\"> </a><p class=\"res-header-id\"><b>Generated Narrative: RequestGroup 173</b></p><a name=\"173\"> </a><a name=\"hc173\"> </a><a name=\"173-en-US\"> </a><p><b>instantiatesCanonical</b>: <a href=\"PlanDefinition-flow-FollowUp.html\">Follow Up</a></p><p><b>status</b>: Draft</p><p><b>intent</b>: Proposal</p><p><b>subject</b>: <a href=\"Bundle-eve-lastTestColonoscopy_yes_eve-colonoscopyFindingCRC_yes_act-oncologyReferral.html#Patient_6573b6a7-9936-4a23-bf1a-0ec00b1e2a9d\">Joanne Smith</a></p><blockquote><p><b>action</b></p><blockquote><p><b>id</b></p>FollowupColonoscopyCRCResult</blockquote><p><b>io/crcsm-cds/StructureDefinition/csm-recommendation-flag</b>: <span title=\"Codes:{http://cancerscreeningcds.github.io/crcsm-cds/CodeSystem/recommendation-flag-code-system due}\">Due</span></p><p><b>title</b>: Refer to Oncology</p><p><b>description</b>: Refer to Oncology for evaluation.</p><p><b>code</b>: <span title=\"Codes:{http://cancerscreeningcds.github.io/crcsm-cds/CodeSystem/plan-definition-action-code-system oncreferral}\">Oncologic referral</span></p><p><b>timing</b>: Events: 2024-10-01 00:00:00+0000 </p><p><b>resource</b>: <a href=\"Bundle-FollowUp_eve-lastTestColonoscopy_yes_eve-colonoscopyFindingCRC_yes_act-oncologyReferral.html#ServiceRequest_174\">Bundle: type = collection</a></p></blockquote></div>"
      },
      "instantiatesCanonical" : ["http://cancerscreeningcds.github.io/crcsm-cds/PlanDefinition/flow-FollowUp"],
      "status" : "draft",
      "intent" : "proposal",
      "subject" : {
        "reference" : "Patient/6573b6a7-9936-4a23-bf1a-0ec00b1e2a9d",
        "display" : "Joanne Smith"
      },
      "action" : [{
        "id" : "FollowupColonoscopyCRCResult",
        "extension" : [{
          "url" : "http://cancerscreeningcds.github.io/crcsm-cds/StructureDefinition/csm-recommendation-flag",
          "valueCodeableConcept" : {
            "coding" : [{
              "system" : "http://cancerscreeningcds.github.io/crcsm-cds/CodeSystem/recommendation-flag-code-system",
              "code" : "due",
              "display" : "Due"
            }]
          }
        }],
        "title" : "Refer to Oncology",
        "description" : "Refer to Oncology for evaluation.",
        "code" : [{
          "coding" : [{
            "system" : "http://cancerscreeningcds.github.io/crcsm-cds/CodeSystem/plan-definition-action-code-system",
            "code" : "oncreferral",
            "display" : "Oncologic referral"
          }]
        }],
        "timingTiming" : {
          "event" : ["2024-10-01T00:00:00.000+00:00"]
        },
        "resource" : {
          "reference" : "ServiceRequest/174"
        }
      }]
    }
  },
  {
    "fullUrl" : "http://cancerscreeningcds.github.io/crcsm-cds/ServiceRequest/174",
    "resource" : {
      "resourceType" : "ServiceRequest",
      "id" : "174",
      "text" : {
        "status" : "generated",
        "div" : "<div xmlns=\"http://www.w3.org/1999/xhtml\"><a name=\"ServiceRequest_174\"> </a><p class=\"res-header-id\"><b>Generated Narrative: ServiceRequest 174</b></p><a name=\"174\"> </a><a name=\"hc174\"> </a><a name=\"174-en-US\"> </a><p><b>basedOn</b>: <a href=\"ActivityDefinition-ColorectalCancerScreeningServiceRequest.html\">Colorectal Cancer Screening Service Request</a></p><p><b>status</b>: option</p><p><b>intent</b>: Proposal</p><p><b>code</b>: <span title=\"Codes:{http://cancerscreeningcds.github.io/crcsm-cds/CodeSystem/plan-definition-action-code-system oncreferral}\">Oncologic referral</span></p><p><b>subject</b>: <a href=\"Bundle-eve-lastTestColonoscopy_yes_eve-colonoscopyFindingCRC_yes_act-oncologyReferral.html#Patient_6573b6a7-9936-4a23-bf1a-0ec00b1e2a9d\">Joanne Smith</a></p><p><b>occurrence</b>: 2024-10-01 00:00:00+0000</p><p><b>reasonCode</b>: <span title=\"Codes:{http://cancerscreeningcds.github.io/crcsm-cds/CodeSystem/colonoscopy-result-observation-code-system crcfinding}\">Colorectal cancer finding</span></p></div>"
      },
      "basedOn" : [{
        "reference" : "http://cancerscreeningcds.github.io/crcsm-cds/ActivityDefinition/ColorectalCancerScreeningServiceRequest"
      }],
      "status" : "option",
      "intent" : "proposal",
      "code" : {
        "coding" : [{
          "system" : "http://cancerscreeningcds.github.io/crcsm-cds/CodeSystem/plan-definition-action-code-system",
          "code" : "oncreferral",
          "display" : "Oncologic referral"
        }]
      },
      "subject" : {
        "reference" : "Patient/6573b6a7-9936-4a23-bf1a-0ec00b1e2a9d",
        "display" : "Joanne Smith"
      },
      "occurrenceDateTime" : "2024-10-01T00:00:00.000+00:00",
      "reasonCode" : [{
        "coding" : [{
          "system" : "http://cancerscreeningcds.github.io/crcsm-cds/CodeSystem/colonoscopy-result-observation-code-system",
          "code" : "crcfinding",
          "display" : "Colorectal cancer finding"
        }]
      }]
    }
  }]
}