{
  "resourceType" : "Bundle",
  "id" : "HighLevel_ColinCarlson",
  "type" : "collection",
  "entry" : [{
    "fullUrl" : "http://cancerscreeningcds.github.io/crcsm-cds/CarePlan/1",
    "resource" : {
      "resourceType" : "CarePlan",
      "id" : "1",
      "text" : {
        "status" : "generated",
        "div" : "<div xmlns=\"http://www.w3.org/1999/xhtml\"><a name=\"CarePlan_1\"> </a><p class=\"res-header-id\"><b>Generated Narrative: CarePlan 1</b></p><a name=\"1\"> </a><a name=\"hc1\"> </a><a name=\"1-en-US\"> </a><p><b>instantiatesCanonical</b>: <a href=\"PlanDefinition-HighLevel.html\">High Level Flow</a></p><p><b>status</b>: Draft</p><p><b>intent</b>: Proposal</p><p><b>subject</b>: <a href=\"Bundle-ColinCarlson.html#Patient_ColinCarlson\">Colin Carlson</a></p><p><b>created</b>: 2024-12-10 00:00:00+0000</p><h3>Activities</h3><table class=\"grid\"><tr><td style=\"display: none\">-</td><td><b>Reference</b></td></tr><tr><td style=\"display: none\">*</td><td><a href=\"Bundle-HighLevel_ColinCarlson.html#RequestGroup_2\">Bundle: type = collection</a></td></tr></table></div>"
      },
      "instantiatesCanonical" : ["http://cancerscreeningcds.github.io/crcsm-cds/PlanDefinition/HighLevel"],
      "status" : "draft",
      "intent" : "proposal",
      "subject" : {
        "reference" : "Patient/ColinCarlson",
        "display" : "Colin Carlson"
      },
      "created" : "2024-12-10T00:00:00.0Z",
      "activity" : [{
        "reference" : {
          "reference" : "RequestGroup/2"
        }
      }]
    }
  },
  {
    "fullUrl" : "http://cancerscreeningcds.github.io/crcsm-cds/RequestGroup/2",
    "resource" : {
      "resourceType" : "RequestGroup",
      "id" : "2",
      "text" : {
        "status" : "generated",
        "div" : "<div xmlns=\"http://www.w3.org/1999/xhtml\"><a name=\"RequestGroup_2\"> </a><p class=\"res-header-id\"><b>Generated Narrative: RequestGroup 2</b></p><a name=\"2\"> </a><a name=\"hc2\"> </a><a name=\"2-en-US\"> </a><p><b>instantiatesCanonical</b>: <a href=\"PlanDefinition-HighLevel.html\">High Level Flow</a></p><p><b>status</b>: Draft</p><p><b>intent</b>: Proposal</p><p><b>subject</b>: <a href=\"Bundle-ColinCarlson.html#Patient_ColinCarlson\">Colin Carlson</a></p><blockquote><p><b>action</b></p><blockquote><p><b>id</b></p>4</blockquote><p><b>title</b>: Primary Screening Decision</p><p><b>description</b>: Primary Screening Decision pathway.</p><p><b>resource</b>: <a href=\"Bundle-HighLevel_ColinCarlson.html#CarePlan_5\">Bundle: type = collection</a></p></blockquote></div>"
      },
      "instantiatesCanonical" : ["http://cancerscreeningcds.github.io/crcsm-cds/PlanDefinition/HighLevel"],
      "status" : "draft",
      "intent" : "proposal",
      "subject" : {
        "reference" : "Patient/ColinCarlson",
        "display" : "Colin Carlson"
      },
      "action" : [{
        "id" : "4",
        "title" : "Primary Screening Decision",
        "description" : "Primary Screening Decision pathway.",
        "resource" : {
          "reference" : "CarePlan/5"
        }
      }]
    }
  },
  {
    "fullUrl" : "http://cancerscreeningcds.github.io/crcsm-cds/CarePlan/5",
    "resource" : {
      "resourceType" : "CarePlan",
      "id" : "5",
      "text" : {
        "status" : "generated",
        "div" : "<div xmlns=\"http://www.w3.org/1999/xhtml\"><a name=\"CarePlan_5\"> </a><p class=\"res-header-id\"><b>Generated Narrative: CarePlan 5</b></p><a name=\"5\"> </a><a name=\"hc5\"> </a><a name=\"5-en-US\"> </a><p><b>instantiatesCanonical</b>: <a href=\"PlanDefinition-PrimaryScreeningDecision.html\">Primary Screening Decision</a></p><p><b>status</b>: option</p><p><b>intent</b>: Proposal</p><p><b>subject</b>: <a href=\"Bundle-ColinCarlson.html#Patient_ColinCarlson\">Colin Carlson</a></p><p><b>created</b>: 2024-12-10 00:00:00+0000</p><h3>Activities</h3><table class=\"grid\"><tr><td style=\"display: none\">-</td><td><b>Reference</b></td></tr><tr><td style=\"display: none\">*</td><td><a href=\"Bundle-HighLevel_ColinCarlson.html#RequestGroup_6\">Bundle: type = collection</a></td></tr></table></div>"
      },
      "instantiatesCanonical" : ["http://cancerscreeningcds.github.io/crcsm-cds/PlanDefinition/PrimaryScreeningDecision"],
      "status" : "option",
      "intent" : "proposal",
      "subject" : {
        "reference" : "Patient/ColinCarlson",
        "display" : "Colin Carlson"
      },
      "created" : "2024-12-10T00:00:00.0Z",
      "activity" : [{
        "reference" : {
          "reference" : "RequestGroup/6"
        }
      }]
    }
  },
  {
    "fullUrl" : "http://cancerscreeningcds.github.io/crcsm-cds/RequestGroup/6",
    "resource" : {
      "resourceType" : "RequestGroup",
      "id" : "6",
      "text" : {
        "status" : "generated",
        "div" : "<div xmlns=\"http://www.w3.org/1999/xhtml\"><a name=\"RequestGroup_6\"> </a><p class=\"res-header-id\"><b>Generated Narrative: RequestGroup 6</b></p><a name=\"6\"> </a><a name=\"hc6\"> </a><a name=\"6-en-US\"> </a><p><b>instantiatesCanonical</b>: <a href=\"PlanDefinition-PrimaryScreeningDecision.html\">Primary Screening Decision</a></p><p><b>status</b>: Draft</p><p><b>intent</b>: Proposal</p><p><b>subject</b>: <a href=\"Bundle-ColinCarlson.html#Patient_ColinCarlson\">Colin Carlson</a></p><blockquote><p><b>action</b></p><blockquote><p><b>id</b></p>Not Screening Eligible</blockquote><p><b>title</b>: Not Screening Eligible</p><p><b>description</b>: Patient is not eligible for screening</p><p><b>code</b>: <span title=\"Codes:{http://cancerscreeningcds.github.io/crcsm-cds/CodeSystem/plan-definition-action-code-system noteligible}\">Not eligible for screening</span></p><p><b>resource</b>: <a href=\"Bundle-HighLevel_ColinCarlson.html#CommunicationRequest_7\">Bundle: type = collection</a></p></blockquote></div>"
      },
      "instantiatesCanonical" : ["http://cancerscreeningcds.github.io/crcsm-cds/PlanDefinition/PrimaryScreeningDecision"],
      "status" : "draft",
      "intent" : "proposal",
      "subject" : {
        "reference" : "Patient/ColinCarlson",
        "display" : "Colin Carlson"
      },
      "action" : [{
        "id" : "Not Screening Eligible",
        "title" : "Not Screening Eligible",
        "description" : "Patient is not eligible for screening",
        "code" : [{
          "coding" : [{
            "system" : "http://cancerscreeningcds.github.io/crcsm-cds/CodeSystem/plan-definition-action-code-system",
            "code" : "noteligible",
            "display" : "Not eligible for screening"
          }]
        }],
        "resource" : {
          "reference" : "CommunicationRequest/7"
        }
      }]
    }
  },
  {
    "fullUrl" : "http://cancerscreeningcds.github.io/crcsm-cds/CommunicationRequest/7",
    "resource" : {
      "resourceType" : "CommunicationRequest",
      "id" : "7",
      "text" : {
        "status" : "generated",
        "div" : "<div xmlns=\"http://www.w3.org/1999/xhtml\"><a name=\"CommunicationRequest_7\"> </a><p class=\"res-header-id\"><b>Generated Narrative: CommunicationRequest 7</b></p><a name=\"7\"> </a><a name=\"hc7\"> </a><a name=\"7-en-US\"> </a><p><b>basedOn</b>: <a href=\"ActivityDefinition-CommunicateNotEligible.html\">Communicate Not Eligible</a></p><p><b>status</b>: option</p><p><b>subject</b>: <a href=\"Bundle-ColinCarlson.html#Patient_ColinCarlson\">Colin Carlson</a></p><h3>Payloads</h3><table class=\"grid\"><tr><td style=\"display: none\">-</td><td><b>Content[x]</b></td></tr><tr><td style=\"display: none\">*</td><td>Not eligible for screening</td></tr></table><p><b>reasonCode</b>: <span title=\"Codes:{http://cancerscreeningcds.github.io/crcsm-cds/CodeSystem/plan-definition-action-reason-code-system currentcolorectalcancer}\">Current colorectal cancer</span></p></div>"
      },
      "basedOn" : [{
        "reference" : "http://cancerscreeningcds.github.io/crcsm-cds/ActivityDefinition/CommunicateNotEligible"
      }],
      "status" : "option",
      "subject" : {
        "reference" : "Patient/ColinCarlson",
        "display" : "Colin Carlson"
      },
      "payload" : [{
        "contentString" : "Not eligible for screening"
      }],
      "reasonCode" : [{
        "coding" : [{
          "system" : "http://cancerscreeningcds.github.io/crcsm-cds/CodeSystem/plan-definition-action-reason-code-system",
          "code" : "currentcolorectalcancer",
          "display" : "Current colorectal cancer"
        }]
      }]
    }
  }]
}