<?xml version="1.0" encoding="UTF-8"?>

<Bundle xmlns="http://hl7.org/fhir">
  <id value="ScreeningEligible_inc-AgeAtLeast18_error"/>
  <type value="collection"/>
  <entry>
    <fullUrl value="http://cancerscreeningcds.github.io/crcsm-cds/CarePlan/229"/>
    <resource>
      <CarePlan>
        <id value="229"/>
        <text>
          <status value="generated"/><div xmlns="http://www.w3.org/1999/xhtml"><a name="CarePlan_229"> </a><p class="res-header-id"><b>Generated Narrative: CarePlan 229</b></p><a name="229"> </a><a name="hc229"> </a><a name="229-en-US"> </a><p><b>instantiatesCanonical</b>: <a href="PlanDefinition-flow-ScreeningEligible.html">Screening Eligible</a></p><p><b>status</b>: Draft</p><p><b>intent</b>: Proposal</p><p><b>subject</b>: <a href="Bundle-inc-AgeAtLeast18_error.html#Patient_4097d9cd-89f8-4f52-a1d3-21b719458c20">Joanne Smith</a></p><p><b>created</b>: 2024-12-10 00:00:00+0000</p><h3>Activities</h3><table class="grid"><tr><td style="display: none">-</td><td><b>Reference</b></td></tr><tr><td style="display: none">*</td><td><a href="Bundle-ScreeningEligible_inc-AgeAtLeast18_error.html#RequestGroup_230">Bundle: type = collection</a></td></tr></table></div>
        </text>
        <instantiatesCanonical value="http://cancerscreeningcds.github.io/crcsm-cds/PlanDefinition/flow-ScreeningEligible"/>
        <status value="draft"/>
        <intent value="proposal"/>
        <subject>
          <reference value="Patient/4097d9cd-89f8-4f52-a1d3-21b719458c20"/>
          <display value="Joanne Smith"/>
        </subject>
        <created value="2024-12-10T00:00:00.0Z"/>
        <activity>
          <reference>
            <reference value="RequestGroup/230"/>
          </reference>
        </activity>
      </CarePlan>
    </resource>
  </entry>
  <entry>
    <fullUrl value="http://cancerscreeningcds.github.io/crcsm-cds/RequestGroup/230"/>
    <resource>
      <RequestGroup>
        <id value="230"/>
        <text>
          <status value="extensions"/><div xmlns="http://www.w3.org/1999/xhtml"><a name="RequestGroup_230"> </a><p class="res-header-id"><b>Generated Narrative: RequestGroup 230</b></p><a name="230"> </a><a name="hc230"> </a><a name="230-en-US"> </a><p><b>Messages</b>: <a href="#hc230/contained-1">OperationOutcome</a></p><p><b>instantiatesCanonical</b>: <a href="PlanDefinition-flow-ScreeningEligible.html">Screening Eligible</a></p><p><b>status</b>: Draft</p><p><b>intent</b>: Proposal</p><p><b>subject</b>: <a href="Bundle-inc-AgeAtLeast18_error.html#Patient_4097d9cd-89f8-4f52-a1d3-21b719458c20">Joanne Smith</a></p><blockquote><p><b>action</b></p><blockquote><p><b>id</b></p>Screening Eligible Missing Data</blockquote><p><b>title</b>: Screening Eligible Missing Data</p><p><b>description</b>: Top level action that defines missing data for inclusion and exclusion.</p><h3>Documentations</h3><table class="grid"><tr><td style="display: none">-</td><td><b>Type</b></td><td><b>Label</b></td><td><b>Display</b></td></tr><tr><td style="display: none">*</td><td>Documentation</td><td>Inclusions</td><td>Error due to missing required data</td></tr></table><p><b>resource</b>: <a href="Questionnaire-ScreeningEligibleQuestionnaire.html">Screening Eligible</a></p></blockquote><hr/><blockquote><p class="res-header-id"><b>Generated Narrative: OperationOutcome #contained-1</b></p><a name="230/contained-1"> </a><a name="hc230/contained-1"> </a><a name="230/contained-1-en-US"> </a><table class="grid"><tr><td><b>Severity</b></td><td><b>Location</b></td><td><b>Code</b></td><td><b>Details</b></td><td><b>Diagnostics</b></td></tr><tr><td>Warning</td><td/><td>Processing Failure</td><td/><td>Missing age or birth date</td></tr></table></blockquote></div>
        </text>
        <contained>
          <OperationOutcome>
            <id value="contained-1"/>
            <issue>
              <severity value="warning"/>
              <code value="processing"/>
              <details>
                <coding>
                  <system value="http://example.org/CodeSystem/plan-definition-action-reason-code-system"/>
                  <code value="missingageorbirthdate"/>
                </coding>
              </details>
              <diagnostics value="Missing age or birth date"/>
            </issue>
          </OperationOutcome>
        </contained>
        <extension url="http://hl7.org/fhir/StructureDefinition/cqf-messages">
          <valueReference>
            <reference value="#contained-1"/>
          </valueReference>
        </extension>
        <instantiatesCanonical value="http://cancerscreeningcds.github.io/crcsm-cds/PlanDefinition/flow-ScreeningEligible"/>
        <status value="draft"/>
        <intent value="proposal"/>
        <subject>
          <reference value="Patient/4097d9cd-89f8-4f52-a1d3-21b719458c20"/>
          <display value="Joanne Smith"/>
        </subject>
        <action id="Screening Eligible Missing Data">
          <title value="Screening Eligible Missing Data"/>
          <description value="Top level action that defines missing data for inclusion and exclusion."/>
          <documentation>
            <type value="documentation"/>
            <label value="Inclusions"/>
            <display value="Error due to missing required data"/>
          </documentation>
          <resource>
            <reference value="Questionnaire/ScreeningEligibleQuestionnaire"/>
          </resource>
        </action>
      </RequestGroup>
    </resource>
  </entry>
  <entry>
    <fullUrl value="http://cancerscreeningcds.github.io/crcsm-cds/Questionnaire/ScreeningEligibleQuestionnaire"/>
    <resource>
      <Questionnaire>
        <id value="ScreeningEligibleQuestionnaire"/>
        <meta>
          <profile value="http://hl7.org/fhir/uv/sdc/StructureDefinition/sdc-questionnaire"/>
        </meta>
        <text>
          <status value="generated"/><div xmlns="http://www.w3.org/1999/xhtml"><a name="Questionnaire_ScreeningEligibleQuestionnaire"> </a><p class="res-header-id"><b>Generated Narrative: Questionnaire ScreeningEligibleQuestionnaire</b></p><a name="ScreeningEligibleQuestionnaire"> </a><a name="hcScreeningEligibleQuestionnaire"> </a><a name="ScreeningEligibleQuestionnaire-en-US"> </a><div style="display: inline-block; background-color: #d9e0e7; padding: 6px; margin: 4px; border: 1px solid #8da1b4; border-radius: 5px; line-height: 60%"><p style="margin-bottom: 0px"/><p style="margin-bottom: 0px">Profile: <a href="http://hl7.org/fhir/uv/sdc/2019May/sdc-questionnaire.html">Questionnaire</a></p></div><table border="1" cellpadding="0" cellspacing="0" style="border: 1px #F0F0F0 solid; font-size: 11px; font-family: verdana; vertical-align: top;"><tr style="border: 2px #F0F0F0 solid; font-size: 11px; font-family: verdana; vertical-align: top"><th style="vertical-align: top; text-align : left; background-color: white; border: 1px #F0F0F0 solid; padding:0px 4px 0px 4px; padding-top: 3px; padding-bottom: 3px" class="hierarchy"><a href="http://hl7.org/fhir/R4/formats.html#table" title="The linkID for the item">LinkID</a></th><th style="vertical-align: top; text-align : left; background-color: white; border: 1px #F0F0F0 solid; padding:0px 4px 0px 4px; padding-top: 3px; padding-bottom: 3px" class="hierarchy"><a href="http://hl7.org/fhir/R4/formats.html#table" title="Text for the item">Text</a></th><th style="vertical-align: top; text-align : left; background-color: white; border: 1px #F0F0F0 solid; padding:0px 4px 0px 4px; padding-top: 3px; padding-bottom: 3px" class="hierarchy"><a href="http://hl7.org/fhir/R4/formats.html#table" title="Minimum and Maximum # of times the item can appear in the instance">Cardinality</a></th><th style="vertical-align: top; text-align : left; background-color: white; border: 1px #F0F0F0 solid; padding:0px 4px 0px 4px; padding-top: 3px; padding-bottom: 3px" class="hierarchy"><a href="http://hl7.org/fhir/R4/formats.html#table" title="The type of the item">Type</a></th><th style="vertical-align: top; text-align : left; background-color: white; border: 1px #F0F0F0 solid; padding:0px 4px 0px 4px; padding-top: 3px; padding-bottom: 3px" class="hierarchy"><a href="http://hl7.org/fhir/R4/formats.html#table" title="Additional information about the item">Description &amp; Constraints</a><span style="float: right"><a href="http://hl7.org/fhir/R4/formats.html#table" title="Legend for this format"><img src="data:image/png;base64," alt="doco" style="background-color: inherit"/></a></span></th></tr><tr style="border: 1px #F0F0F0 solid; padding:0px; vertical-align: top; background-color: white"><td style="vertical-align: top; text-align : left; background-color: white; border: 1px #F0F0F0 solid; padding:0px 4px 0px 4px; white-space: nowrap; background-image: url(tbl_bck1.png)" class="hierarchy"><img src="tbl_spacer.png" alt="." style="background-color: inherit" class="hierarchy"/><img src="icon_q_root.gif" alt="." style="background-color: white; background-color: inherit" title="QuestionnaireRoot" class="hierarchy"/> ScreeningEligible</td><td style="vertical-align: top; text-align : left; background-color: white; border: 1px #F0F0F0 solid; padding:0px 4px 0px 4px" class="hierarchy"/><td style="vertical-align: top; text-align : left; background-color: white; border: 1px #F0F0F0 solid; padding:0px 4px 0px 4px" class="hierarchy"></td><td style="vertical-align: top; text-align : left; background-color: white; border: 1px #F0F0F0 solid; padding:0px 4px 0px 4px" class="hierarchy">Questionnaire</td><td style="vertical-align: top; text-align : left; background-color: white; border: 1px #F0F0F0 solid; padding:0px 4px 0px 4px" class="hierarchy">http://cancerscreeningcds.github.io/crcsm-cds/Questionnaire/ScreeningEligibleQuestionnaire#1.0.0</td></tr>
<tr style="border: 1px #F0F0F0 solid; padding:0px; vertical-align: top; background-color: #F7F7F7"><td style="vertical-align: top; text-align : left; background-color: #F7F7F7; border: 1px #F0F0F0 solid; padding:0px 4px 0px 4px; white-space: nowrap; background-image: url(tbl_bck10.png)" id="item.age-in-years" class="hierarchy"><img src="tbl_spacer.png" alt="." style="background-color: inherit" class="hierarchy"/><img src="tbl_vjoin.png" alt="." style="background-color: inherit" class="hierarchy"/><img src="icon-q-integer.png" alt="." style="background-color: #F7F7F7; background-color: inherit" title="integer" class="hierarchy"/> age-in-years</td><td style="vertical-align: top; text-align : left; background-color: #F7F7F7; border: 1px #F0F0F0 solid; padding:0px 4px 0px 4px" class="hierarchy">Age in years</td><td style="vertical-align: top; text-align : left; background-color: #F7F7F7; border: 1px #F0F0F0 solid; padding:0px 4px 0px 4px" class="hierarchy">0..1</td><td style="vertical-align: top; text-align : left; background-color: #F7F7F7; border: 1px #F0F0F0 solid; padding:0px 4px 0px 4px" class="hierarchy"><a href="http://hl7.org/fhir/R4/codesystem-item-type.html#item-type-integer">integer</a></td><td style="vertical-align: top; text-align : left; background-color: #F7F7F7; border: 1px #F0F0F0 solid; padding:0px 4px 0px 4px" class="hierarchy"/></tr>
<tr style="border: 1px #F0F0F0 solid; padding:0px; vertical-align: top; background-color: white"><td style="vertical-align: top; text-align : left; background-color: white; border: 1px #F0F0F0 solid; padding:0px 4px 0px 4px; white-space: nowrap; background-image: url(tbl_bck00.png)" id="item.colorectal-symptoms" class="hierarchy"><img src="tbl_spacer.png" alt="." style="background-color: inherit" class="hierarchy"/><img src="tbl_vjoin_end.png" alt="." style="background-color: inherit" class="hierarchy"/><img src="icon-q-boolean.png" alt="." style="background-color: white; background-color: inherit" title="boolean" class="hierarchy"/> colorectal-symptoms</td><td style="vertical-align: top; text-align : left; background-color: white; border: 1px #F0F0F0 solid; padding:0px 4px 0px 4px" class="hierarchy">New or worsening colorectal symptoms</td><td style="vertical-align: top; text-align : left; background-color: white; border: 1px #F0F0F0 solid; padding:0px 4px 0px 4px" class="hierarchy">0..1</td><td style="vertical-align: top; text-align : left; background-color: white; border: 1px #F0F0F0 solid; padding:0px 4px 0px 4px" class="hierarchy"><a href="http://hl7.org/fhir/R4/codesystem-item-type.html#item-type-boolean">boolean</a></td><td style="vertical-align: top; text-align : left; background-color: white; border: 1px #F0F0F0 solid; padding:0px 4px 0px 4px" class="hierarchy"/></tr>
<tr><td colspan="5" class="hierarchy"><br/><a href="http://hl7.org/fhir/R4/formats.html#table" title="Legend for this format"><img src="data:image/png;base64," alt="doco" style="background-color: inherit"/> Documentation for this format</a></td></tr></table></div>
        </text>
        <url value="http://cancerscreeningcds.github.io/crcsm-cds/Questionnaire/ScreeningEligibleQuestionnaire"/>
        <version value="1.0.0"/>
        <name value="ScreeningEligible"/>
        <title value="Screening Eligible"/>
        <status value="draft"/>
        <subjectType value="Patient"/>
        <item>
          <extension url="http://hl7.org/fhir/StructureDefinition/questionnaire-unit">
            <valueCoding>
              <system value="http://unitsofmeasure.org"/>
              <code value="[a]"/>
            </valueCoding>
          </extension>
          <linkId value="age-in-years"/>
          <code>
            <system value="http://loinc.org"/>
            <code value="30525-0"/>
          </code>
          <text value="Age in years"/>
          <type value="integer"/>
        </item>
        <item>
          <linkId value="colorectal-symptoms"/>
          <code>
            <system value="http://cancerscreeningcds.github.io/crcsm-cds/CodeSystem/screening-observation-code-system"/>
            <code value="ColorectalSymptoms"/>
          </code>
          <text value="New or worsening colorectal symptoms"/>
          <type value="boolean"/>
        </item>
      </Questionnaire>
    </resource>
  </entry>
</Bundle>