<?xml version="1.0" encoding="UTF-8"?>

<Bundle xmlns="http://hl7.org/fhir">
  <id value="PrimaryScreeningDecision_IsScreeningEligible_true"/>
  <type value="collection"/>
  <entry>
    <fullUrl value="http://cancerscreeningcds.github.io/crcsm-cds/CarePlan/113"/>
    <resource>
      <CarePlan>
        <id value="113"/>
        <text>
          <status value="generated"/><div xmlns="http://www.w3.org/1999/xhtml"><a name="CarePlan_113"> </a><p class="res-header-id"><b>Generated Narrative: CarePlan 113</b></p><a name="113"> </a><a name="hc113"> </a><a name="113-en-US"> </a><p><b>instantiatesCanonical</b>: <a href="PlanDefinition-PrimaryScreeningDecision.html">Primary Screening Decision</a></p><p><b>status</b>: Draft</p><p><b>intent</b>: Proposal</p><p><b>subject</b>: <a href="Bundle-IsScreeningEligible_true.html#Patient_1933a468-1b36-4ef2-b956-b44a4bd03ea3">Joanne Smith</a></p><p><b>created</b>: 2024-12-10 00:00:00+0000</p><h3>Activities</h3><table class="grid"><tr><td style="display: none">-</td><td><b>Reference</b></td></tr><tr><td style="display: none">*</td><td><a href="Bundle-PrimaryScreeningDecision_IsScreeningEligible_true.html#RequestGroup_114">Bundle: type = collection</a></td></tr></table></div>
        </text>
        <instantiatesCanonical value="http://cancerscreeningcds.github.io/crcsm-cds/PlanDefinition/PrimaryScreeningDecision"/>
        <status value="draft"/>
        <intent value="proposal"/>
        <subject>
          <reference value="Patient/1933a468-1b36-4ef2-b956-b44a4bd03ea3"/>
          <display value="Joanne Smith"/>
        </subject>
        <created value="2024-12-10T00:00:00.0Z"/>
        <activity>
          <reference>
            <reference value="RequestGroup/114"/>
          </reference>
        </activity>
      </CarePlan>
    </resource>
  </entry>
  <entry>
    <fullUrl value="http://cancerscreeningcds.github.io/crcsm-cds/RequestGroup/114"/>
    <resource>
      <RequestGroup>
        <id value="114"/>
        <text>
          <status value="generated"/><div xmlns="http://www.w3.org/1999/xhtml"><a name="RequestGroup_114"> </a><p class="res-header-id"><b>Generated Narrative: RequestGroup 114</b></p><a name="114"> </a><a name="hc114"> </a><a name="114-en-US"> </a><p><b>instantiatesCanonical</b>: <a href="PlanDefinition-PrimaryScreeningDecision.html">Primary Screening Decision</a></p><p><b>status</b>: Draft</p><p><b>intent</b>: Proposal</p><p><b>subject</b>: <a href="Bundle-IsScreeningEligible_true.html#Patient_1933a468-1b36-4ef2-b956-b44a4bd03ea3">Joanne Smith</a></p><blockquote><p><b>action</b></p><blockquote><p><b>id</b></p>StartScreening</blockquote><p><b>title</b>: Start screening Now</p><p><b>description</b>: Start screening now. Patients at average risk for colorectal cancer should start screening at 45 years old.

Screening strategies and intervals recommended for average risk patients include:
* Colonoscopy every 10 years
* High-sensitivity gFOBT or FIT every year
* sDNA-FIT every 1 to 3 years
* CT colonography every 5 years
* Flexible sigmoidoscopy every 5 years
* Flexible sigmoidoscopy every 10 years + FIT every year</p><p><b>code</b>: <span title="Codes:{http://snomed.info/sct 268548003}">Screening for malignant neoplasm of large intestine (procedure)</span></p><h3>Documentations</h3><table class="grid"><tr><td style="display: none">-</td><td><b>Type</b></td><td><b>Label</b></td><td><b>Display</b></td><td><b>Citation</b></td><td><b>Url</b></td></tr><tr><td style="display: none">*</td><td>Citation</td><td>USPSTF (2021)</td><td>Screening for Colorectal Cancer: US Preventive Services Task Force Recommendation Statement</td><td><div><p>US Preventive Services Task Force. Screening for Colorectal Cancer: US Preventive Services Task Force Recommendation Statement. JAMA. Published online May 18, 2021.</p>
</div></td><td><a href="https://www.uspreventiveservicestaskforce.org/uspstf/recommendation/colorectal-cancer-screening">https://www.uspreventiveservicestaskforce.org/uspstf/recommendation/colorectal-cancer-screening</a></td></tr></table><p><b>timing</b>: Events: 2016-01-01 , Once</p><p><b>resource</b>: <a href="Bundle-PrimaryScreeningDecision_IsScreeningEligible_true.html#ServiceRequest_115">Bundle: type = collection</a></p></blockquote></div>
        </text>
        <instantiatesCanonical value="http://cancerscreeningcds.github.io/crcsm-cds/PlanDefinition/PrimaryScreeningDecision"/>
        <status value="draft"/>
        <intent value="proposal"/>
        <subject>
          <reference value="Patient/1933a468-1b36-4ef2-b956-b44a4bd03ea3"/>
          <display value="Joanne Smith"/>
        </subject>
        <action id="StartScreening">
          <title value="Start screening Now"/>
          <description value="Start screening now. Patients at average risk for colorectal cancer should start screening at 45 years old.&#xA;&#xA;Screening strategies and intervals recommended for average risk patients include:&#xA;* Colonoscopy every 10 years&#xA;* High-sensitivity gFOBT or FIT every year&#xA;* sDNA-FIT every 1 to 3 years&#xA;* CT colonography every 5 years&#xA;* Flexible sigmoidoscopy every 5 years&#xA;* Flexible sigmoidoscopy every 10 years + FIT every year"/>
          <code>
            <coding>
              <system value="http://snomed.info/sct"/>
              <code value="268548003"/>
              <display value="Screening for malignant neoplasm of large intestine (procedure)"/>
            </coding>
          </code>
          <documentation>
            <type value="citation"/>
            <label value="USPSTF (2021)"/>
            <display value="Screening for Colorectal Cancer: US Preventive Services Task Force Recommendation Statement"/>
            <citation value="US Preventive Services Task Force. Screening for Colorectal Cancer: US Preventive Services Task Force Recommendation Statement. JAMA. Published online May 18, 2021."/>
            <url value="https://www.uspreventiveservicestaskforce.org/uspstf/recommendation/colorectal-cancer-screening"/>
          </documentation>
          <timingTiming>
            <event value="2016-01-01"/>
            <repeat>
              <boundsPeriod>
                <start value="2016-01-01"/>
              </boundsPeriod>
            </repeat>
          </timingTiming>
          <resource>
            <reference value="ServiceRequest/115"/>
          </resource>
        </action>
      </RequestGroup>
    </resource>
  </entry>
  <entry>
    <fullUrl value="http://cancerscreeningcds.github.io/crcsm-cds/ServiceRequest/115"/>
    <resource>
      <ServiceRequest>
        <id value="115"/>
        <text>
          <status value="generated"/><div xmlns="http://www.w3.org/1999/xhtml"><a name="ServiceRequest_115"> </a><p class="res-header-id"><b>Generated Narrative: ServiceRequest 115</b></p><a name="115"> </a><a name="hc115"> </a><a name="115-en-US"> </a><p><b>basedOn</b>: <a href="ActivityDefinition-ColorectalCancerScreeningServiceRequest.html">Colorectal Cancer Screening Service Request</a></p><p><b>status</b>: option</p><p><b>intent</b>: Proposal</p><p><b>code</b>: <span title="Codes:{http://snomed.info/sct 268548003}">Screening for malignant neoplasm of large intestine (procedure)</span></p><p><b>subject</b>: <a href="Bundle-IsScreeningEligible_true.html#Patient_1933a468-1b36-4ef2-b956-b44a4bd03ea3">Joanne Smith</a></p><p><b>occurrence</b>: 2016-01-01</p><p><b>reasonCode</b>: <span title="Codes:{http://cancerscreeningcds.github.io/crcsm-cds/CodeSystem/plan-definition-action-reason-code-system USPSTFaveragerisk}">USPSTF average risk</span></p></div>
        </text>
        <basedOn>
          <reference value="http://cancerscreeningcds.github.io/crcsm-cds/ActivityDefinition/ColorectalCancerScreeningServiceRequest"/>
        </basedOn>
        <status value="option"/>
        <intent value="proposal"/>
        <code>
          <coding>
            <system value="http://snomed.info/sct"/>
            <code value="268548003"/>
            <display value="Screening for malignant neoplasm of large intestine (procedure)"/>
          </coding>
        </code>
        <subject>
          <reference value="Patient/1933a468-1b36-4ef2-b956-b44a4bd03ea3"/>
          <display value="Joanne Smith"/>
        </subject>
        <occurrenceDateTime value="2016-01-01"/>
        <reasonCode>
          <coding>
            <system value="http://cancerscreeningcds.github.io/crcsm-cds/CodeSystem/plan-definition-action-reason-code-system"/>
            <code value="USPSTFaveragerisk"/>
            <display value="USPSTF average risk"/>
          </coding>
        </reasonCode>
      </ServiceRequest>
    </resource>
  </entry>
</Bundle>