<?xml version="1.0" encoding="UTF-8"?>

<Bundle xmlns="http://hl7.org/fhir">
  <id value="HighLevel_SallySimpson"/>
  <type value="collection"/>
  <entry>
    <fullUrl value="http://cancerscreeningcds.github.io/crcsm-cds/CarePlan/72"/>
    <resource>
      <CarePlan>
        <id value="72"/>
        <text>
          <status value="generated"/><div xmlns="http://www.w3.org/1999/xhtml"><a name="CarePlan_72"> </a><p class="res-header-id"><b>Generated Narrative: CarePlan 72</b></p><a name="72"> </a><a name="hc72"> </a><a name="72-en-US"> </a><p><b>instantiatesCanonical</b>: <a href="PlanDefinition-HighLevel.html">High Level Flow</a></p><p><b>status</b>: Draft</p><p><b>intent</b>: Proposal</p><p><b>subject</b>: <a href="Bundle-SallySimpson.html#Patient_SallySimpson">Sally Simpson</a></p><p><b>created</b>: 2024-12-10 00:00:00+0000</p><h3>Activities</h3><table class="grid"><tr><td style="display: none">-</td><td><b>Reference</b></td></tr><tr><td style="display: none">*</td><td><a href="Bundle-HighLevel_SallySimpson.html#RequestGroup_73">Bundle: type = collection</a></td></tr></table></div>
        </text>
        <instantiatesCanonical value="http://cancerscreeningcds.github.io/crcsm-cds/PlanDefinition/HighLevel"/>
        <status value="draft"/>
        <intent value="proposal"/>
        <subject>
          <reference value="Patient/SallySimpson"/>
          <display value="Sally Simpson"/>
        </subject>
        <created value="2024-12-10T00:00:00.0Z"/>
        <activity>
          <reference>
            <reference value="RequestGroup/73"/>
          </reference>
        </activity>
      </CarePlan>
    </resource>
  </entry>
  <entry>
    <fullUrl value="http://cancerscreeningcds.github.io/crcsm-cds/RequestGroup/73"/>
    <resource>
      <RequestGroup>
        <id value="73"/>
        <text>
          <status value="generated"/><div xmlns="http://www.w3.org/1999/xhtml"><a name="RequestGroup_73"> </a><p class="res-header-id"><b>Generated Narrative: RequestGroup 73</b></p><a name="73"> </a><a name="hc73"> </a><a name="73-en-US"> </a><p><b>instantiatesCanonical</b>: <a href="PlanDefinition-HighLevel.html">High Level Flow</a></p><p><b>status</b>: Draft</p><p><b>intent</b>: Proposal</p><p><b>subject</b>: <a href="Bundle-SallySimpson.html#Patient_SallySimpson">Sally Simpson</a></p><blockquote><p><b>action</b></p><blockquote><p><b>id</b></p>75</blockquote><p><b>title</b>: Primary Screening Decision</p><p><b>description</b>: Primary Screening Decision pathway.</p><p><b>resource</b>: <a href="Bundle-HighLevel_SallySimpson.html#CarePlan_76">Bundle: type = collection</a></p></blockquote></div>
        </text>
        <instantiatesCanonical value="http://cancerscreeningcds.github.io/crcsm-cds/PlanDefinition/HighLevel"/>
        <status value="draft"/>
        <intent value="proposal"/>
        <subject>
          <reference value="Patient/SallySimpson"/>
          <display value="Sally Simpson"/>
        </subject>
        <action id="75">
          <title value="Primary Screening Decision"/>
          <description value="Primary Screening Decision pathway."/>
          <resource>
            <reference value="CarePlan/76"/>
          </resource>
        </action>
      </RequestGroup>
    </resource>
  </entry>
  <entry>
    <fullUrl value="http://cancerscreeningcds.github.io/crcsm-cds/CarePlan/76"/>
    <resource>
      <CarePlan>
        <id value="76"/>
        <text>
          <status value="generated"/><div xmlns="http://www.w3.org/1999/xhtml"><a name="CarePlan_76"> </a><p class="res-header-id"><b>Generated Narrative: CarePlan 76</b></p><a name="76"> </a><a name="hc76"> </a><a name="76-en-US"> </a><p><b>instantiatesCanonical</b>: <a href="PlanDefinition-PrimaryScreeningDecision.html">Primary Screening Decision</a></p><p><b>status</b>: option</p><p><b>intent</b>: Proposal</p><p><b>subject</b>: <a href="Bundle-SallySimpson.html#Patient_SallySimpson">Sally Simpson</a></p><p><b>created</b>: 2024-12-10 00:00:00+0000</p><h3>Activities</h3><table class="grid"><tr><td style="display: none">-</td><td><b>Reference</b></td></tr><tr><td style="display: none">*</td><td><a href="Bundle-HighLevel_SallySimpson.html#RequestGroup_77">Bundle: type = collection</a></td></tr></table></div>
        </text>
        <instantiatesCanonical value="http://cancerscreeningcds.github.io/crcsm-cds/PlanDefinition/PrimaryScreeningDecision"/>
        <status value="option"/>
        <intent value="proposal"/>
        <subject>
          <reference value="Patient/SallySimpson"/>
          <display value="Sally Simpson"/>
        </subject>
        <created value="2024-12-10T00:00:00.0Z"/>
        <activity>
          <reference>
            <reference value="RequestGroup/77"/>
          </reference>
        </activity>
      </CarePlan>
    </resource>
  </entry>
  <entry>
    <fullUrl value="http://cancerscreeningcds.github.io/crcsm-cds/RequestGroup/77"/>
    <resource>
      <RequestGroup>
        <id value="77"/>
        <text>
          <status value="generated"/><div xmlns="http://www.w3.org/1999/xhtml"><a name="RequestGroup_77"> </a><p class="res-header-id"><b>Generated Narrative: RequestGroup 77</b></p><a name="77"> </a><a name="hc77"> </a><a name="77-en-US"> </a><p><b>instantiatesCanonical</b>: <a href="PlanDefinition-PrimaryScreeningDecision.html">Primary Screening Decision</a></p><p><b>status</b>: Draft</p><p><b>intent</b>: Proposal</p><p><b>subject</b>: <a href="Bundle-SallySimpson.html#Patient_SallySimpson">Sally Simpson</a></p><blockquote><p><b>action</b></p><blockquote><p><b>id</b></p>Not Screening Eligible</blockquote><p><b>title</b>: Not Screening Eligible</p><p><b>description</b>: Patient is not eligible for screening</p><p><b>code</b>: <span title="Codes:{http://cancerscreeningcds.github.io/crcsm-cds/CodeSystem/plan-definition-action-code-system noteligible}">Not eligible for screening</span></p><p><b>resource</b>: <a href="Bundle-HighLevel_SallySimpson.html#CommunicationRequest_78">Bundle: type = collection</a></p></blockquote></div>
        </text>
        <instantiatesCanonical value="http://cancerscreeningcds.github.io/crcsm-cds/PlanDefinition/PrimaryScreeningDecision"/>
        <status value="draft"/>
        <intent value="proposal"/>
        <subject>
          <reference value="Patient/SallySimpson"/>
          <display value="Sally Simpson"/>
        </subject>
        <action id="Not Screening Eligible">
          <title value="Not Screening Eligible"/>
          <description value="Patient is not eligible for screening"/>
          <code>
            <coding>
              <system value="http://cancerscreeningcds.github.io/crcsm-cds/CodeSystem/plan-definition-action-code-system"/>
              <code value="noteligible"/>
              <display value="Not eligible for screening"/>
            </coding>
          </code>
          <resource>
            <reference value="CommunicationRequest/78"/>
          </resource>
        </action>
      </RequestGroup>
    </resource>
  </entry>
  <entry>
    <fullUrl value="http://cancerscreeningcds.github.io/crcsm-cds/CommunicationRequest/78"/>
    <resource>
      <CommunicationRequest>
        <id value="78"/>
        <text>
          <status value="generated"/><div xmlns="http://www.w3.org/1999/xhtml"><a name="CommunicationRequest_78"> </a><p class="res-header-id"><b>Generated Narrative: CommunicationRequest 78</b></p><a name="78"> </a><a name="hc78"> </a><a name="78-en-US"> </a><p><b>basedOn</b>: <a href="ActivityDefinition-CommunicateNotEligible.html">Communicate Not Eligible</a></p><p><b>status</b>: option</p><p><b>subject</b>: <a href="Bundle-SallySimpson.html#Patient_SallySimpson">Sally Simpson</a></p><h3>Payloads</h3><table class="grid"><tr><td style="display: none">-</td><td><b>Content[x]</b></td></tr><tr><td style="display: none">*</td><td>Not eligible for screening</td></tr></table><p><b>reasonCode</b>: <span title="Codes:{http://cancerscreeningcds.github.io/crcsm-cds/CodeSystem/plan-definition-action-reason-code-system diagtesting}">Diagnostic testing</span></p></div>
        </text>
        <basedOn>
          <reference value="http://cancerscreeningcds.github.io/crcsm-cds/ActivityDefinition/CommunicateNotEligible"/>
        </basedOn>
        <status value="option"/>
        <subject>
          <reference value="Patient/SallySimpson"/>
          <display value="Sally Simpson"/>
        </subject>
        <payload>
          <contentString value="Not eligible for screening"/>
        </payload>
        <reasonCode>
          <coding>
            <system value="http://cancerscreeningcds.github.io/crcsm-cds/CodeSystem/plan-definition-action-reason-code-system"/>
            <code value="diagtesting"/>
            <display value="Diagnostic testing"/>
          </coding>
        </reasonCode>
      </CommunicationRequest>
    </resource>
  </entry>
</Bundle>