{
  "resourceType" : "Bundle",
  "id" : "USPSTFAvgRisk_eve-AgeOver45_no_act-RecommendStartScreeningAt45",
  "type" : "collection",
  "entry" : [{
    "fullUrl" : "http://cancerscreeningcds.github.io/crcsm-cds/CarePlan/239",
    "resource" : {
      "resourceType" : "CarePlan",
      "id" : "239",
      "text" : {
        "status" : "generated",
        "div" : "<div xmlns=\"http://www.w3.org/1999/xhtml\"><a name=\"CarePlan_239\"> </a><p class=\"res-header-id\"><b>Generated Narrative: CarePlan 239</b></p><a name=\"239\"> </a><a name=\"hc239\"> </a><a name=\"239-en-US\"> </a><p><b>instantiatesCanonical</b>: <a href=\"PlanDefinition-flow-USPSTFAvgRisk.html\">Average Risk</a></p><p><b>status</b>: Draft</p><p><b>intent</b>: Proposal</p><p><b>subject</b>: <a href=\"Patient/bf6b45fd-4d00-42c6-92de-9b4bbb7d63c0\">Joanne Smith</a></p><p><b>created</b>: 2024-12-10 00:00:00+0000</p><h3>Activities</h3><table class=\"grid\"><tr><td style=\"display: none\">-</td><td><b>Reference</b></td></tr><tr><td style=\"display: none\">*</td><td><a href=\"Bundle-USPSTFAvgRisk_eve-AgeOver45_no_act-RecommendStartScreeningAt45.html#RequestGroup_240\">Bundle: type = collection</a></td></tr></table></div>"
      },
      "instantiatesCanonical" : ["http://cancerscreeningcds.github.io/crcsm-cds/PlanDefinition/flow-USPSTFAvgRisk"],
      "status" : "draft",
      "intent" : "proposal",
      "subject" : {
        "reference" : "Patient/bf6b45fd-4d00-42c6-92de-9b4bbb7d63c0",
        "display" : "Joanne Smith"
      },
      "created" : "2024-12-10T00:00:00.0Z",
      "activity" : [{
        "reference" : {
          "reference" : "RequestGroup/240"
        }
      }]
    }
  },
  {
    "fullUrl" : "http://cancerscreeningcds.github.io/crcsm-cds/RequestGroup/240",
    "resource" : {
      "resourceType" : "RequestGroup",
      "id" : "240",
      "text" : {
        "status" : "generated",
        "div" : "<div xmlns=\"http://www.w3.org/1999/xhtml\"><a name=\"RequestGroup_240\"> </a><p class=\"res-header-id\"><b>Generated Narrative: RequestGroup 240</b></p><a name=\"240\"> </a><a name=\"hc240\"> </a><a name=\"240-en-US\"> </a><p><b>instantiatesCanonical</b>: <a href=\"PlanDefinition-flow-USPSTFAvgRisk.html\">Average Risk</a></p><p><b>status</b>: Draft</p><p><b>intent</b>: Proposal</p><p><b>subject</b>: <a href=\"Patient/bf6b45fd-4d00-42c6-92de-9b4bbb7d63c0\">Joanne Smith</a></p><blockquote><p><b>action</b></p><blockquote><p><b>id</b></p>StartScreeningAt45YearsOld</blockquote><p><b>title</b>: Start screening at 45 years old</p><p><b>description</b>: Patients at average risk for colorectal cancer should start screening at 45 years old.</p><p><b>code</b>: <span title=\"Codes:{http://snomed.info/sct 268548003}\">Screening for malignant neoplasm of large intestine (procedure)</span></p><h3>Documentations</h3><table class=\"grid\"><tr><td style=\"display: none\">-</td><td><b>Type</b></td><td><b>Label</b></td><td><b>Display</b></td><td><b>Citation</b></td><td><b>Url</b></td></tr><tr><td style=\"display: none\">*</td><td>Citation</td><td>USPSTF (2021)</td><td>Screening for Colorectal Cancer: US Preventive Services Task Force Recommendation Statement</td><td><div><p>US Preventive Services Task Force. Screening for Colorectal Cancer: US Preventive Services Task Force Recommendation Statement. JAMA. Published online May 18, 2021.</p>\n</div></td><td><a href=\"https://www.uspreventiveservicestaskforce.org/uspstf/recommendation/colorectal-cancer-screening\">https://www.uspreventiveservicestaskforce.org/uspstf/recommendation/colorectal-cancer-screening</a></td></tr></table><p><b>timing</b>: Events: 2036-01-01 , Once</p><p><b>resource</b>: <a href=\"Bundle-USPSTFAvgRisk_eve-AgeOver45_no_act-RecommendStartScreeningAt45.html#ServiceRequest_241\">Bundle: type = collection</a></p></blockquote></div>"
      },
      "instantiatesCanonical" : ["http://cancerscreeningcds.github.io/crcsm-cds/PlanDefinition/flow-USPSTFAvgRisk"],
      "status" : "draft",
      "intent" : "proposal",
      "subject" : {
        "reference" : "Patient/bf6b45fd-4d00-42c6-92de-9b4bbb7d63c0",
        "display" : "Joanne Smith"
      },
      "action" : [{
        "id" : "StartScreeningAt45YearsOld",
        "title" : "Start screening at 45 years old",
        "description" : "Patients at average risk for colorectal cancer should start screening at 45 years old.",
        "code" : [{
          "coding" : [{
            "system" : "http://snomed.info/sct",
            "code" : "268548003",
            "display" : "Screening for malignant neoplasm of large intestine (procedure)"
          }]
        }],
        "documentation" : [{
          "type" : "citation",
          "label" : "USPSTF (2021)",
          "display" : "Screening for Colorectal Cancer: US Preventive Services Task Force Recommendation Statement",
          "citation" : "US Preventive Services Task Force. Screening for Colorectal Cancer: US Preventive Services Task Force Recommendation Statement. JAMA. Published online May 18, 2021.",
          "url" : "https://www.uspreventiveservicestaskforce.org/uspstf/recommendation/colorectal-cancer-screening"
        }],
        "timingTiming" : {
          "event" : ["2036-01-01"],
          "repeat" : {
            "boundsPeriod" : {
              "start" : "2036-01-01"
            }
          }
        },
        "resource" : {
          "reference" : "ServiceRequest/241"
        }
      }]
    }
  },
  {
    "fullUrl" : "http://cancerscreeningcds.github.io/crcsm-cds/ServiceRequest/241",
    "resource" : {
      "resourceType" : "ServiceRequest",
      "id" : "241",
      "text" : {
        "status" : "generated",
        "div" : "<div xmlns=\"http://www.w3.org/1999/xhtml\"><a name=\"ServiceRequest_241\"> </a><p class=\"res-header-id\"><b>Generated Narrative: ServiceRequest 241</b></p><a name=\"241\"> </a><a name=\"hc241\"> </a><a name=\"241-en-US\"> </a><p><b>basedOn</b>: <a href=\"ActivityDefinition-ColorectalCancerScreeningServiceRequest.html\">Colorectal Cancer Screening Service Request</a></p><p><b>status</b>: option</p><p><b>intent</b>: Proposal</p><p><b>code</b>: <span title=\"Codes:{http://snomed.info/sct 268548003}\">Screening for malignant neoplasm of large intestine (procedure)</span></p><p><b>subject</b>: <a href=\"Patient/bf6b45fd-4d00-42c6-92de-9b4bbb7d63c0\">Joanne Smith</a></p><p><b>occurrence</b>: 2036-01-01</p><p><b>reasonCode</b>: <span title=\"Codes:{http://cancerscreeningcds.github.io/crcsm-cds/CodeSystem/plan-definition-action-reason-code-system USPSTFaveragerisk}\">USPSTF average risk</span></p></div>"
      },
      "basedOn" : [{
        "reference" : "http://cancerscreeningcds.github.io/crcsm-cds/ActivityDefinition/ColorectalCancerScreeningServiceRequest"
      }],
      "status" : "option",
      "intent" : "proposal",
      "code" : {
        "coding" : [{
          "system" : "http://snomed.info/sct",
          "code" : "268548003",
          "display" : "Screening for malignant neoplasm of large intestine (procedure)"
        }]
      },
      "subject" : {
        "reference" : "Patient/bf6b45fd-4d00-42c6-92de-9b4bbb7d63c0",
        "display" : "Joanne Smith"
      },
      "occurrenceDateTime" : "2036-01-01",
      "reasonCode" : [{
        "coding" : [{
          "system" : "http://cancerscreeningcds.github.io/crcsm-cds/CodeSystem/plan-definition-action-reason-code-system",
          "code" : "USPSTFaveragerisk",
          "display" : "USPSTF average risk"
        }]
      }]
    }
  }]
}