<?xml version="1.0" encoding="UTF-8"?>

<Bundle xmlns="http://hl7.org/fhir">
  <id value="PrimaryScreeningDecision_PaulinePolyanski"/>
  <type value="collection"/>
  <entry>
    <fullUrl value="http://cancerscreeningcds.github.io/crcsm-cds/CarePlan/119"/>
    <resource>
      <CarePlan>
        <id value="119"/>
        <text>
          <status value="generated"/><div xmlns="http://www.w3.org/1999/xhtml"><a name="CarePlan_119"> </a><p class="res-header-id"><b>Generated Narrative: CarePlan 119</b></p><a name="119"> </a><a name="hc119"> </a><a name="119-en-US"> </a><p><b>instantiatesCanonical</b>: <a href="PlanDefinition-PrimaryScreeningDecision.html">Primary Screening Decision</a></p><p><b>status</b>: Draft</p><p><b>intent</b>: Proposal</p><p><b>subject</b>: <a href="Bundle-PaulinePolyanski.html#Patient_PaulinePolyanski">Pauline Polyasnki</a></p><p><b>created</b>: 2024-12-10 00:00:00+0000</p><h3>Activities</h3><table class="grid"><tr><td style="display: none">-</td><td><b>Reference</b></td></tr><tr><td style="display: none">*</td><td><a href="Bundle-PrimaryScreeningDecision_PaulinePolyanski.html#RequestGroup_120">Bundle: type = collection</a></td></tr></table></div>
        </text>
        <instantiatesCanonical value="http://cancerscreeningcds.github.io/crcsm-cds/PlanDefinition/PrimaryScreeningDecision"/>
        <status value="draft"/>
        <intent value="proposal"/>
        <subject>
          <reference value="Patient/PaulinePolyanski"/>
          <display value="Pauline Polyasnki"/>
        </subject>
        <created value="2024-12-10T00:00:00.0Z"/>
        <activity>
          <reference>
            <reference value="RequestGroup/120"/>
          </reference>
        </activity>
      </CarePlan>
    </resource>
  </entry>
  <entry>
    <fullUrl value="http://cancerscreeningcds.github.io/crcsm-cds/RequestGroup/120"/>
    <resource>
      <RequestGroup>
        <id value="120"/>
        <text>
          <status value="generated"/><div xmlns="http://www.w3.org/1999/xhtml"><a name="RequestGroup_120"> </a><p class="res-header-id"><b>Generated Narrative: RequestGroup 120</b></p><a name="120"> </a><a name="hc120"> </a><a name="120-en-US"> </a><p><b>instantiatesCanonical</b>: <a href="PlanDefinition-PrimaryScreeningDecision.html">Primary Screening Decision</a></p><p><b>status</b>: Draft</p><p><b>intent</b>: Proposal</p><p><b>subject</b>: <a href="Bundle-PaulinePolyanski.html#Patient_PaulinePolyanski">Pauline Polyasnki</a></p><blockquote><p><b>action</b></p><blockquote><p><b>id</b></p>HistoryPolypsIncreasedRisk</blockquote><p><b>title</b>: Post-polypectomy surveillance</p><p><b>description</b>: Follow endoscopist-recommended interval. </p><h3>Documentations</h3><table class="grid"><tr><td style="display: none">-</td><td><b>Type</b></td><td><b>Label</b></td><td><b>Display</b></td><td><b>Citation</b></td></tr><tr><td style="display: none">*</td><td>Citation</td><td>USMSTF Follow-Up After Colonoscopy and Polypectomy (2020)</td><td>Recommendations for Follow-Up After Colonoscopy and Polypectomy: A Consensus Update by the US Multi-Society Task Force on Colorectal Cancer</td><td><div><p>Gupta, S., et al. (2020). Recommendations for Follow-Up After Colonoscopy and Polypectomy: A Consensus Update by the US Multi-Society Task Force on Colorectal Cancer. Gastroenterology, 158(4), 1131–1153.e5. https://doi.org/10.1053/j.gastro.2019.10.026</p>
</div></td></tr></table><p><b>resource</b>: <a href="Bundle-PrimaryScreeningDecision_PaulinePolyanski.html#ServiceRequest_121">Bundle: type = collection</a></p></blockquote></div>
        </text>
        <instantiatesCanonical value="http://cancerscreeningcds.github.io/crcsm-cds/PlanDefinition/PrimaryScreeningDecision"/>
        <status value="draft"/>
        <intent value="proposal"/>
        <subject>
          <reference value="Patient/PaulinePolyanski"/>
          <display value="Pauline Polyasnki"/>
        </subject>
        <action id="HistoryPolypsIncreasedRisk">
          <title value="Post-polypectomy surveillance"/>
          <description value="Follow endoscopist-recommended interval. "/>
          <documentation>
            <type value="citation"/>
            <label value="USMSTF Follow-Up After Colonoscopy and Polypectomy (2020)"/>
            <display value="Recommendations for Follow-Up After Colonoscopy and Polypectomy: A Consensus Update by the US Multi-Society Task Force on Colorectal Cancer"/>
            <citation value="Gupta, S., et al. (2020). Recommendations for Follow-Up After Colonoscopy and Polypectomy: A Consensus Update by the US Multi-Society Task Force on Colorectal Cancer. Gastroenterology, 158(4), 1131–1153.e5. https://doi.org/10.1053/j.gastro.2019.10.026"/>
          </documentation>
          <resource>
            <reference value="ServiceRequest/121"/>
          </resource>
        </action>
      </RequestGroup>
    </resource>
  </entry>
  <entry>
    <fullUrl value="http://cancerscreeningcds.github.io/crcsm-cds/ServiceRequest/121"/>
    <resource>
      <ServiceRequest>
        <id value="121"/>
        <text>
          <status value="generated"/><div xmlns="http://www.w3.org/1999/xhtml"><a name="ServiceRequest_121"> </a><p class="res-header-id"><b>Generated Narrative: ServiceRequest 121</b></p><a name="121"> </a><a name="hc121"> </a><a name="121-en-US"> </a><p><b>basedOn</b>: <a href="ActivityDefinition-ColorectalCancerScreeningServiceRequest.html">Colorectal Cancer Screening Service Request</a></p><p><b>status</b>: option</p><p><b>intent</b>: Proposal</p><p><b>code</b>: <span title="Codes:{http://cancerscreeningcds.github.io/crcsm-cds/CodeSystem/plan-definition-action-code-system increasedriskscreening}">Increased risk screening for colorectal cancer</span></p><p><b>subject</b>: <a href="Bundle-PaulinePolyanski.html#Patient_PaulinePolyanski">Pauline Polyasnki</a></p><p><b>reasonCode</b>: <span title="Codes:{http://cancerscreeningcds.github.io/crcsm-cds/CodeSystem/plan-definition-action-reason-code-system historyofprecancerouspolyps}">History of potentially precancerous polyps</span></p></div>
        </text>
        <basedOn>
          <reference value="http://cancerscreeningcds.github.io/crcsm-cds/ActivityDefinition/ColorectalCancerScreeningServiceRequest"/>
        </basedOn>
        <status value="option"/>
        <intent value="proposal"/>
        <code>
          <coding>
            <system value="http://cancerscreeningcds.github.io/crcsm-cds/CodeSystem/plan-definition-action-code-system"/>
            <code value="increasedriskscreening"/>
            <display value="Increased risk screening for colorectal cancer"/>
          </coding>
        </code>
        <subject>
          <reference value="Patient/PaulinePolyanski"/>
          <display value="Pauline Polyasnki"/>
        </subject>
        <reasonCode>
          <coding>
            <system value="http://cancerscreeningcds.github.io/crcsm-cds/CodeSystem/plan-definition-action-reason-code-system"/>
            <code value="historyofprecancerouspolyps"/>
            <display value="History of potentially precancerous polyps"/>
          </coding>
        </reasonCode>
      </ServiceRequest>
    </resource>
  </entry>
</Bundle>