<?xml version="1.0" encoding="UTF-8"?>

<Bundle xmlns="http://hl7.org/fhir">
  <id value="FollowUp_PollyStuart"/>
  <type value="collection"/>
  <entry>
    <fullUrl value="http://cancerscreeningcds.github.io/crcsm-cds/CarePlan/137"/>
    <resource>
      <CarePlan>
        <id value="137"/>
        <text>
          <status value="generated"/><div xmlns="http://www.w3.org/1999/xhtml"><a name="CarePlan_137"> </a><p class="res-header-id"><b>Generated Narrative: CarePlan 137</b></p><a name="137"> </a><a name="hc137"> </a><a name="137-en-US"> </a><p><b>instantiatesCanonical</b>: <a href="PlanDefinition-flow-FollowUp.html">Follow Up</a></p><p><b>status</b>: Draft</p><p><b>intent</b>: Proposal</p><p><b>subject</b>: <a href="Bundle-PollyStuart.html#Patient_PollyStuart">Polly Stuart</a></p><p><b>created</b>: 2024-12-10 00:00:00+0000</p><h3>Activities</h3><table class="grid"><tr><td style="display: none">-</td><td><b>Reference</b></td></tr><tr><td style="display: none">*</td><td><a href="Bundle-DecisionToScreen_HankCarlson.html#RequestGroup_138">Bundle: type = collection</a></td></tr></table></div>
        </text>
        <instantiatesCanonical value="http://cancerscreeningcds.github.io/crcsm-cds/PlanDefinition/flow-FollowUp"/>
        <status value="draft"/>
        <intent value="proposal"/>
        <subject>
          <reference value="Patient/PollyStuart"/>
          <display value="Polly Stuart"/>
        </subject>
        <created value="2024-12-10T00:00:00.0Z"/>
        <activity>
          <reference>
            <reference value="RequestGroup/138"/>
          </reference>
        </activity>
      </CarePlan>
    </resource>
  </entry>
  <entry>
    <fullUrl value="http://cancerscreeningcds.github.io/crcsm-cds/RequestGroup/138"/>
    <resource>
      <RequestGroup>
        <id value="138"/>
        <text>
          <status value="extensions"/><div xmlns="http://www.w3.org/1999/xhtml"><a name="RequestGroup_138"> </a><p class="res-header-id"><b>Generated Narrative: RequestGroup 138</b></p><a name="138"> </a><a name="hc138"> </a><a name="138-en-US"> </a><p><b>instantiatesCanonical</b>: <a href="PlanDefinition-flow-FollowUp.html">Follow Up</a></p><p><b>status</b>: Draft</p><p><b>intent</b>: Proposal</p><p><b>subject</b>: <a href="Bundle-PollyStuart.html#Patient_PollyStuart">Polly Stuart</a></p><blockquote><p><b>action</b></p><blockquote><p><b>id</b></p>FollowupColonoscopyPolypResult</blockquote><p><b>io/crcsm-cds/StructureDefinition/csm-recommendation-flag</b>: <span title="Codes:{http://cancerscreeningcds.github.io/crcsm-cds/CodeSystem/recommendation-flag-code-system overdue}">Overdue</span></p><p><b>title</b>: Follow-up with endoscopist for recommendation</p><p><b>description</b>: Follow-up with endoscopist to determine appropriate interval for next screening/surveillance colonoscopy.</p><p><b>code</b>: <span title="Codes:{http://cancerscreeningcds.github.io/crcsm-cds/CodeSystem/plan-definition-action-code-system endoscopistrecs}">Follow-up with endoscopist for recommendations</span></p><p><b>timing</b>: Events: 2024-02-18 00:00:00+0000 </p><p><b>resource</b>: <a href="Bundle-DecisionToScreen_HankCarlson.html#ServiceRequest_139">Bundle: type = collection</a></p></blockquote></div>
        </text>
        <instantiatesCanonical value="http://cancerscreeningcds.github.io/crcsm-cds/PlanDefinition/flow-FollowUp"/>
        <status value="draft"/>
        <intent value="proposal"/>
        <subject>
          <reference value="Patient/PollyStuart"/>
          <display value="Polly Stuart"/>
        </subject>
        <action id="FollowupColonoscopyPolypResult">
          <extension url="http://cancerscreeningcds.github.io/crcsm-cds/StructureDefinition/csm-recommendation-flag">
            <valueCodeableConcept>
              <coding>
                <system value="http://cancerscreeningcds.github.io/crcsm-cds/CodeSystem/recommendation-flag-code-system"/>
                <code value="overdue"/>
                <display value="Overdue"/>
              </coding>
            </valueCodeableConcept>
          </extension>
          <title value="Follow-up with endoscopist for recommendation"/>
          <description value="Follow-up with endoscopist to determine appropriate interval for next screening/surveillance colonoscopy."/>
          <code>
            <coding>
              <system value="http://cancerscreeningcds.github.io/crcsm-cds/CodeSystem/plan-definition-action-code-system"/>
              <code value="endoscopistrecs"/>
              <display value="Follow-up with endoscopist for recommendations"/>
            </coding>
          </code>
          <timingTiming>
            <event value="2024-02-18T00:00:00.000+00:00"/>
          </timingTiming>
          <resource>
            <reference value="ServiceRequest/139"/>
          </resource>
        </action>
      </RequestGroup>
    </resource>
  </entry>
  <entry>
    <fullUrl value="http://cancerscreeningcds.github.io/crcsm-cds/ServiceRequest/139"/>
    <resource>
      <ServiceRequest>
        <id value="139"/>
        <text>
          <status value="generated"/><div xmlns="http://www.w3.org/1999/xhtml"><a name="ServiceRequest_139"> </a><p class="res-header-id"><b>Generated Narrative: ServiceRequest 139</b></p><a name="139"> </a><a name="hc139"> </a><a name="139-en-US"> </a><p><b>basedOn</b>: <a href="ActivityDefinition-ColorectalCancerScreeningServiceRequest.html">Colorectal Cancer Screening Service Request</a></p><p><b>status</b>: option</p><p><b>intent</b>: Proposal</p><p><b>code</b>: <span title="Codes:{http://cancerscreeningcds.github.io/crcsm-cds/CodeSystem/plan-definition-action-code-system endoscopistrecs}">Follow-up with endoscopist for recommendations</span></p><p><b>subject</b>: <a href="Bundle-PollyStuart.html#Patient_PollyStuart">Polly Stuart</a></p><p><b>occurrence</b>: 2024-02-18 00:00:00+0000</p><p><b>reasonCode</b>: <span title="Codes:{http://cancerscreeningcds.github.io/crcsm-cds/CodeSystem/colonoscopy-result-observation-code-system missingrec}">Missing endoscopist recommendation for potentially precancerous polyp finding</span></p></div>
        </text>
        <basedOn>
          <reference value="http://cancerscreeningcds.github.io/crcsm-cds/ActivityDefinition/ColorectalCancerScreeningServiceRequest"/>
        </basedOn>
        <status value="option"/>
        <intent value="proposal"/>
        <code>
          <coding>
            <system value="http://cancerscreeningcds.github.io/crcsm-cds/CodeSystem/plan-definition-action-code-system"/>
            <code value="endoscopistrecs"/>
            <display value="Follow-up with endoscopist for recommendations"/>
          </coding>
        </code>
        <subject>
          <reference value="Patient/PollyStuart"/>
          <display value="Polly Stuart"/>
        </subject>
        <occurrenceDateTime value="2024-02-18T00:00:00.000+00:00"/>
        <reasonCode>
          <coding>
            <system value="http://cancerscreeningcds.github.io/crcsm-cds/CodeSystem/colonoscopy-result-observation-code-system"/>
            <code value="missingrec"/>
            <display value="Missing endoscopist recommendation for potentially precancerous polyp finding"/>
          </coding>
        </reasonCode>
      </ServiceRequest>
    </resource>
  </entry>
</Bundle>