{
  "resourceType" : "Bundle",
  "id" : "DecisionToScreen_eve-Age86AndOlder_no_eve-AgeOver76_no_eve-LifeExp10_yes_act-sdmcontinuelifexp__eve-riskFactors_yes_act-incRiskEligible",
  "type" : "collection",
  "entry" : [{
    "fullUrl" : "http://cancerscreeningcds.github.io/crcsm-cds/CarePlan/150",
    "resource" : {
      "resourceType" : "CarePlan",
      "id" : "150",
      "text" : {
        "status" : "generated",
        "div" : "<div xmlns=\"http://www.w3.org/1999/xhtml\"><a name=\"CarePlan_150\"> </a><p class=\"res-header-id\"><b>Generated Narrative: CarePlan 150</b></p><a name=\"150\"> </a><a name=\"hc150\"> </a><a name=\"150-en-US\"> </a><p><b>instantiatesCanonical</b>: <a href=\"PlanDefinition-flow-DecisionToScreen.html\">Decision to Screen</a></p><p><b>status</b>: Draft</p><p><b>intent</b>: Proposal</p><p><b>subject</b>: <a href=\"Patient/888823c8-bf79-44fe-870f-cc3e37ba9d56\">Joanne Smith</a></p><p><b>created</b>: 2024-12-10 00:00:00+0000</p><h3>Activities</h3><table class=\"grid\"><tr><td style=\"display: none\">-</td><td><b>Reference</b></td></tr><tr><td style=\"display: none\">*</td><td><a href=\"Bundle-DecisionToScreen_eve-Age86AndOlder_no_eve-AgeOver76_no_eve-LifeExp10_yes_act-sdmcontinuelifexp__eve-riskFactors_yes_act-incRiskEligible.html#RequestGroup_151\">Bundle: type = collection</a></td></tr></table></div>"
      },
      "instantiatesCanonical" : ["http://cancerscreeningcds.github.io/crcsm-cds/PlanDefinition/flow-DecisionToScreen"],
      "status" : "draft",
      "intent" : "proposal",
      "subject" : {
        "reference" : "Patient/888823c8-bf79-44fe-870f-cc3e37ba9d56",
        "display" : "Joanne Smith"
      },
      "created" : "2024-12-10T00:00:00.0Z",
      "activity" : [{
        "reference" : {
          "reference" : "RequestGroup/151"
        }
      }]
    }
  },
  {
    "fullUrl" : "http://cancerscreeningcds.github.io/crcsm-cds/RequestGroup/151",
    "resource" : {
      "resourceType" : "RequestGroup",
      "id" : "151",
      "text" : {
        "status" : "generated",
        "div" : "<div xmlns=\"http://www.w3.org/1999/xhtml\"><a name=\"RequestGroup_151\"> </a><p class=\"res-header-id\"><b>Generated Narrative: RequestGroup 151</b></p><a name=\"151\"> </a><a name=\"hc151\"> </a><a name=\"151-en-US\"> </a><p><b>instantiatesCanonical</b>: <a href=\"PlanDefinition-flow-DecisionToScreen.html\">Decision to Screen</a></p><p><b>status</b>: Draft</p><p><b>intent</b>: Proposal</p><p><b>subject</b>: <a href=\"Patient/888823c8-bf79-44fe-870f-cc3e37ba9d56\">Joanne Smith</a></p><blockquote><p><b>action</b></p><blockquote><p><b>id</b></p>SDMContinueScreeningLifeExp</blockquote><p><b>title</b>: Discuss decision to continue screening</p><p><b>description</b>: ACS advises that individuals should continue colorectal cancer screening as long as their overall health is good and they have a life expectancy of 10 years or more. Decision to continue screening in cases of limited life expectancy should be based on shared decision-making.</p><h3>Documentations</h3><table class=\"grid\"><tr><td style=\"display: none\">-</td><td><b>Type</b></td><td><b>Label</b></td><td><b>Display</b></td><td><b>Citation</b></td></tr><tr><td style=\"display: none\">*</td><td>Citation</td><td>ACS 2018</td><td>Colorectal cancer screening for average‐risk adults: 2018 guideline update from the American Cancer Society</td><td><div><p>Wolf, A. M. D., et al. (2018). Colorectal cancer screening for average‐risk adults: 2018 guideline update from the American Cancer Society. CA: A Cancer Journal for Clinicians, 68(4), 250–281. https://doi.org/10.3322/caac.21457</p>\n</div></td></tr></table><p><b>resource</b>: <a href=\"Bundle-DecisionToScreen_eve-Age86AndOlder_no_eve-AgeOver76_no_eve-LifeExp10_yes_act-sdmcontinuelifexp__eve-riskFactors_yes_act-incRiskEligible.html#CommunicationRequest_152\">Bundle: type = collection</a></p></blockquote><blockquote><p><b>action</b></p><blockquote><p><b>id</b></p>HereditarySyndromesSurveillance</blockquote><p><b>title</b>: Colorectal cancer surveillance per specialist recommendations</p><p><b>description</b>: Refer to GI specialist for colorectal cancer (and possibly additional cancers) surveillance recommendations.\n\nPatients with a hereditary cancer syndrome require specialized management and colonoscopy surveillance for colorectal cancer (as well as additional surveillance for other cancers). Recommendations on when to start surveillance and surveillance intervals vary according to the syndrome.</p><h3>Documentations</h3><table class=\"grid\"><tr><td style=\"display: none\">-</td><td><b>Type</b></td><td><b>Label</b></td><td><b>Display</b></td><td><b>Citation</b></td></tr><tr><td style=\"display: none\">*</td><td>Citation</td><td>ACG Hereditary Syndromes (2015)</td><td>ACG Clinical Guideline: Genetic Testing and Management of Hereditary Gastrointestinal Cancer Syndromes</td><td><div><p>Syngal, S., et al. (2015). ACG Clinical Guideline: Genetic Testing and Management of Hereditary Gastrointestinal Cancer Syndromes. American Journal of Gastroenterology 110(2):p 223-262. https://doi.org/10.1038/ajg.2014.435</p>\n</div></td></tr></table><p><b>resource</b>: <a href=\"Bundle-DecisionToScreen_eve-Age86AndOlder_no_eve-AgeOver76_no_eve-LifeExp10_yes_act-sdmcontinuelifexp__eve-riskFactors_yes_act-incRiskEligible.html#ServiceRequest_153\">Bundle: type = collection</a></p></blockquote></div>"
      },
      "instantiatesCanonical" : ["http://cancerscreeningcds.github.io/crcsm-cds/PlanDefinition/flow-DecisionToScreen"],
      "status" : "draft",
      "intent" : "proposal",
      "subject" : {
        "reference" : "Patient/888823c8-bf79-44fe-870f-cc3e37ba9d56",
        "display" : "Joanne Smith"
      },
      "action" : [{
        "id" : "SDMContinueScreeningLifeExp",
        "title" : "Discuss decision to continue screening",
        "description" : "ACS advises that individuals should continue colorectal cancer screening as long as their overall health is good and they have a life expectancy of 10 years or more. Decision to continue screening in cases of limited life expectancy should be based on shared decision-making.",
        "documentation" : [{
          "type" : "citation",
          "label" : "ACS 2018",
          "display" : "Colorectal cancer screening for average‐risk adults: 2018 guideline update from the American Cancer Society",
          "citation" : "Wolf, A. M. D., et al. (2018). Colorectal cancer screening for average‐risk adults: 2018 guideline update from the American Cancer Society. CA: A Cancer Journal for Clinicians, 68(4), 250–281. https://doi.org/10.3322/caac.21457"
        }],
        "resource" : {
          "reference" : "CommunicationRequest/152"
        }
      },
      {
        "id" : "HereditarySyndromesSurveillance",
        "title" : "Colorectal cancer surveillance per specialist recommendations",
        "description" : "Refer to GI specialist for colorectal cancer (and possibly additional cancers) surveillance recommendations.\n\nPatients with a hereditary cancer syndrome require specialized management and colonoscopy surveillance for colorectal cancer (as well as additional surveillance for other cancers). Recommendations on when to start surveillance and surveillance intervals vary according to the syndrome.",
        "documentation" : [{
          "type" : "citation",
          "label" : "ACG Hereditary Syndromes (2015)",
          "display" : "ACG Clinical Guideline: Genetic Testing and Management of Hereditary Gastrointestinal Cancer Syndromes",
          "citation" : "Syngal, S., et al. (2015). ACG Clinical Guideline: Genetic Testing and Management of Hereditary Gastrointestinal Cancer Syndromes. American Journal of Gastroenterology 110(2):p 223-262. https://doi.org/10.1038/ajg.2014.435"
        }],
        "resource" : {
          "reference" : "ServiceRequest/153"
        }
      }]
    }
  },
  {
    "fullUrl" : "http://cancerscreeningcds.github.io/crcsm-cds/CommunicationRequest/152",
    "resource" : {
      "resourceType" : "CommunicationRequest",
      "id" : "152",
      "text" : {
        "status" : "generated",
        "div" : "<div xmlns=\"http://www.w3.org/1999/xhtml\"><a name=\"CommunicationRequest_152\"> </a><p class=\"res-header-id\"><b>Generated Narrative: CommunicationRequest 152</b></p><a name=\"152\"> </a><a name=\"hc152\"> </a><a name=\"152-en-US\"> </a><p><b>basedOn</b>: <a href=\"ActivityDefinition-CommunicateSDMContinueScreening.html\">Communicate Shared Decision Making to Continue Screening</a></p><p><b>status</b>: option</p><p><b>subject</b>: <a href=\"Patient/888823c8-bf79-44fe-870f-cc3e37ba9d56\">Joanne Smith</a></p><h3>Payloads</h3><table class=\"grid\"><tr><td style=\"display: none\">-</td><td><b>Content[x]</b></td></tr><tr><td style=\"display: none\">*</td><td>Shared decision making to continue screening</td></tr></table><p><b>reasonCode</b>: <span title=\"Codes:{http://cancerscreeningcds.github.io/crcsm-cds/CodeSystem/plan-definition-action-reason-code-system lifeexp}\">Reduced life expectancy indicator</span></p></div>"
      },
      "basedOn" : [{
        "reference" : "http://cancerscreeningcds.github.io/crcsm-cds/ActivityDefinition/CommunicateSDMContinueScreening"
      }],
      "status" : "option",
      "subject" : {
        "reference" : "Patient/888823c8-bf79-44fe-870f-cc3e37ba9d56",
        "display" : "Joanne Smith"
      },
      "payload" : [{
        "contentString" : "Shared decision making to continue screening"
      }],
      "reasonCode" : [{
        "coding" : [{
          "system" : "http://cancerscreeningcds.github.io/crcsm-cds/CodeSystem/plan-definition-action-reason-code-system",
          "code" : "lifeexp",
          "display" : "Reduced life expectancy indicator"
        }]
      }]
    }
  },
  {
    "fullUrl" : "http://cancerscreeningcds.github.io/crcsm-cds/ServiceRequest/153",
    "resource" : {
      "resourceType" : "ServiceRequest",
      "id" : "153",
      "text" : {
        "status" : "generated",
        "div" : "<div xmlns=\"http://www.w3.org/1999/xhtml\"><a name=\"ServiceRequest_153\"> </a><p class=\"res-header-id\"><b>Generated Narrative: ServiceRequest 153</b></p><a name=\"153\"> </a><a name=\"hc153\"> </a><a name=\"153-en-US\"> </a><p><b>basedOn</b>: <a href=\"ActivityDefinition-ColorectalCancerScreeningServiceRequest.html\">Colorectal Cancer Screening Service Request</a></p><p><b>status</b>: option</p><p><b>intent</b>: Proposal</p><p><b>code</b>: <span title=\"Codes:{http://snomed.info/sct 452071000124102}\">Surveillance for colorectal cancer (regime/therapy)</span></p><p><b>subject</b>: <a href=\"Patient/888823c8-bf79-44fe-870f-cc3e37ba9d56\">Joanne Smith</a></p><p><b>reasonCode</b>: <span title=\"Codes:{http://snomed.info/sct 699346009}\">Hereditary cancer-predisposing syndrome (disorder)</span></p></div>"
      },
      "basedOn" : [{
        "reference" : "http://cancerscreeningcds.github.io/crcsm-cds/ActivityDefinition/ColorectalCancerScreeningServiceRequest"
      }],
      "status" : "option",
      "intent" : "proposal",
      "code" : {
        "coding" : [{
          "system" : "http://snomed.info/sct",
          "code" : "452071000124102",
          "display" : "Surveillance for colorectal cancer (regime/therapy)"
        }]
      },
      "subject" : {
        "reference" : "Patient/888823c8-bf79-44fe-870f-cc3e37ba9d56",
        "display" : "Joanne Smith"
      },
      "reasonCode" : [{
        "coding" : [{
          "system" : "http://snomed.info/sct",
          "code" : "699346009",
          "display" : "Hereditary cancer-predisposing syndrome (disorder)"
        }]
      }]
    }
  }]
}