<?xml version="1.0" encoding="UTF-8"?>

<Bundle xmlns="http://hl7.org/fhir">
  <id value="USPSTFAvgRisk_eve-AgeOver45_no_act-RecommendStartScreeningAt45"/>
  <type value="collection"/>
  <entry>
    <fullUrl value="http://cancerscreeningcds.github.io/crcsm-cds/CarePlan/239"/>
    <resource>
      <CarePlan>
        <id value="239"/>
        <text>
          <status value="generated"/><div xmlns="http://www.w3.org/1999/xhtml"><a name="CarePlan_239"> </a><p class="res-header-id"><b>Generated Narrative: CarePlan 239</b></p><a name="239"> </a><a name="hc239"> </a><a name="239-en-US"> </a><p><b>instantiatesCanonical</b>: <a href="PlanDefinition-flow-USPSTFAvgRisk.html">Average Risk</a></p><p><b>status</b>: Draft</p><p><b>intent</b>: Proposal</p><p><b>subject</b>: <a href="Patient/bf6b45fd-4d00-42c6-92de-9b4bbb7d63c0">Joanne Smith</a></p><p><b>created</b>: 2024-12-10 00:00:00+0000</p><h3>Activities</h3><table class="grid"><tr><td style="display: none">-</td><td><b>Reference</b></td></tr><tr><td style="display: none">*</td><td><a href="Bundle-USPSTFAvgRisk_eve-AgeOver45_no_act-RecommendStartScreeningAt45.html#RequestGroup_240">Bundle: type = collection</a></td></tr></table></div>
        </text>
        <instantiatesCanonical value="http://cancerscreeningcds.github.io/crcsm-cds/PlanDefinition/flow-USPSTFAvgRisk"/>
        <status value="draft"/>
        <intent value="proposal"/>
        <subject>
          <reference value="Patient/bf6b45fd-4d00-42c6-92de-9b4bbb7d63c0"/>
          <display value="Joanne Smith"/>
        </subject>
        <created value="2024-12-10T00:00:00.0Z"/>
        <activity>
          <reference>
            <reference value="RequestGroup/240"/>
          </reference>
        </activity>
      </CarePlan>
    </resource>
  </entry>
  <entry>
    <fullUrl value="http://cancerscreeningcds.github.io/crcsm-cds/RequestGroup/240"/>
    <resource>
      <RequestGroup>
        <id value="240"/>
        <text>
          <status value="generated"/><div xmlns="http://www.w3.org/1999/xhtml"><a name="RequestGroup_240"> </a><p class="res-header-id"><b>Generated Narrative: RequestGroup 240</b></p><a name="240"> </a><a name="hc240"> </a><a name="240-en-US"> </a><p><b>instantiatesCanonical</b>: <a href="PlanDefinition-flow-USPSTFAvgRisk.html">Average Risk</a></p><p><b>status</b>: Draft</p><p><b>intent</b>: Proposal</p><p><b>subject</b>: <a href="Patient/bf6b45fd-4d00-42c6-92de-9b4bbb7d63c0">Joanne Smith</a></p><blockquote><p><b>action</b></p><blockquote><p><b>id</b></p>StartScreeningAt45YearsOld</blockquote><p><b>title</b>: Start screening at 45 years old</p><p><b>description</b>: Patients at average risk for colorectal cancer should start screening at 45 years old.</p><p><b>code</b>: <span title="Codes:{http://snomed.info/sct 268548003}">Screening for malignant neoplasm of large intestine (procedure)</span></p><h3>Documentations</h3><table class="grid"><tr><td style="display: none">-</td><td><b>Type</b></td><td><b>Label</b></td><td><b>Display</b></td><td><b>Citation</b></td><td><b>Url</b></td></tr><tr><td style="display: none">*</td><td>Citation</td><td>USPSTF (2021)</td><td>Screening for Colorectal Cancer: US Preventive Services Task Force Recommendation Statement</td><td><div><p>US Preventive Services Task Force. Screening for Colorectal Cancer: US Preventive Services Task Force Recommendation Statement. JAMA. Published online May 18, 2021.</p>
</div></td><td><a href="https://www.uspreventiveservicestaskforce.org/uspstf/recommendation/colorectal-cancer-screening">https://www.uspreventiveservicestaskforce.org/uspstf/recommendation/colorectal-cancer-screening</a></td></tr></table><p><b>timing</b>: Events: 2036-01-01 , Once</p><p><b>resource</b>: <a href="Bundle-USPSTFAvgRisk_eve-AgeOver45_no_act-RecommendStartScreeningAt45.html#ServiceRequest_241">Bundle: type = collection</a></p></blockquote></div>
        </text>
        <instantiatesCanonical value="http://cancerscreeningcds.github.io/crcsm-cds/PlanDefinition/flow-USPSTFAvgRisk"/>
        <status value="draft"/>
        <intent value="proposal"/>
        <subject>
          <reference value="Patient/bf6b45fd-4d00-42c6-92de-9b4bbb7d63c0"/>
          <display value="Joanne Smith"/>
        </subject>
        <action id="StartScreeningAt45YearsOld">
          <title value="Start screening at 45 years old"/>
          <description value="Patients at average risk for colorectal cancer should start screening at 45 years old."/>
          <code>
            <coding>
              <system value="http://snomed.info/sct"/>
              <code value="268548003"/>
              <display value="Screening for malignant neoplasm of large intestine (procedure)"/>
            </coding>
          </code>
          <documentation>
            <type value="citation"/>
            <label value="USPSTF (2021)"/>
            <display value="Screening for Colorectal Cancer: US Preventive Services Task Force Recommendation Statement"/>
            <citation value="US Preventive Services Task Force. Screening for Colorectal Cancer: US Preventive Services Task Force Recommendation Statement. JAMA. Published online May 18, 2021."/>
            <url value="https://www.uspreventiveservicestaskforce.org/uspstf/recommendation/colorectal-cancer-screening"/>
          </documentation>
          <timingTiming>
            <event value="2036-01-01"/>
            <repeat>
              <boundsPeriod>
                <start value="2036-01-01"/>
              </boundsPeriod>
            </repeat>
          </timingTiming>
          <resource>
            <reference value="ServiceRequest/241"/>
          </resource>
        </action>
      </RequestGroup>
    </resource>
  </entry>
  <entry>
    <fullUrl value="http://cancerscreeningcds.github.io/crcsm-cds/ServiceRequest/241"/>
    <resource>
      <ServiceRequest>
        <id value="241"/>
        <text>
          <status value="generated"/><div xmlns="http://www.w3.org/1999/xhtml"><a name="ServiceRequest_241"> </a><p class="res-header-id"><b>Generated Narrative: ServiceRequest 241</b></p><a name="241"> </a><a name="hc241"> </a><a name="241-en-US"> </a><p><b>basedOn</b>: <a href="ActivityDefinition-ColorectalCancerScreeningServiceRequest.html">Colorectal Cancer Screening Service Request</a></p><p><b>status</b>: option</p><p><b>intent</b>: Proposal</p><p><b>code</b>: <span title="Codes:{http://snomed.info/sct 268548003}">Screening for malignant neoplasm of large intestine (procedure)</span></p><p><b>subject</b>: <a href="Patient/bf6b45fd-4d00-42c6-92de-9b4bbb7d63c0">Joanne Smith</a></p><p><b>occurrence</b>: 2036-01-01</p><p><b>reasonCode</b>: <span title="Codes:{http://cancerscreeningcds.github.io/crcsm-cds/CodeSystem/plan-definition-action-reason-code-system USPSTFaveragerisk}">USPSTF average risk</span></p></div>
        </text>
        <basedOn>
          <reference value="http://cancerscreeningcds.github.io/crcsm-cds/ActivityDefinition/ColorectalCancerScreeningServiceRequest"/>
        </basedOn>
        <status value="option"/>
        <intent value="proposal"/>
        <code>
          <coding>
            <system value="http://snomed.info/sct"/>
            <code value="268548003"/>
            <display value="Screening for malignant neoplasm of large intestine (procedure)"/>
          </coding>
        </code>
        <subject>
          <reference value="Patient/bf6b45fd-4d00-42c6-92de-9b4bbb7d63c0"/>
          <display value="Joanne Smith"/>
        </subject>
        <occurrenceDateTime value="2036-01-01"/>
        <reasonCode>
          <coding>
            <system value="http://cancerscreeningcds.github.io/crcsm-cds/CodeSystem/plan-definition-action-reason-code-system"/>
            <code value="USPSTFaveragerisk"/>
            <display value="USPSTF average risk"/>
          </coding>
        </reasonCode>
      </ServiceRequest>
    </resource>
  </entry>
</Bundle>