<?xml version="1.0" encoding="UTF-8"?>

<Bundle xmlns="http://hl7.org/fhir">
  <id value="HighLevel_PollyStuart"/>
  <type value="collection"/>
  <entry>
    <fullUrl value="http://cancerscreeningcds.github.io/crcsm-cds/CarePlan/65"/>
    <resource>
      <CarePlan>
        <id value="65"/>
        <text>
          <status value="generated"/><div xmlns="http://www.w3.org/1999/xhtml"><a name="CarePlan_65"> </a><p class="res-header-id"><b>Generated Narrative: CarePlan 65</b></p><a name="65"> </a><a name="hc65"> </a><a name="65-en-US"> </a><p><b>instantiatesCanonical</b>: <a href="PlanDefinition-HighLevel.html">High Level Flow</a></p><p><b>status</b>: Draft</p><p><b>intent</b>: Proposal</p><p><b>subject</b>: <a href="Bundle-PollyStuart.html#Patient_PollyStuart">Polly Stuart</a></p><p><b>created</b>: 2024-12-10 00:00:00+0000</p><h3>Activities</h3><table class="grid"><tr><td style="display: none">-</td><td><b>Reference</b></td></tr><tr><td style="display: none">*</td><td><a href="Bundle-HighLevel_PollyStuart.html#RequestGroup_66">Bundle: type = collection</a></td></tr></table></div>
        </text>
        <instantiatesCanonical value="http://cancerscreeningcds.github.io/crcsm-cds/PlanDefinition/HighLevel"/>
        <status value="draft"/>
        <intent value="proposal"/>
        <subject>
          <reference value="Patient/PollyStuart"/>
          <display value="Polly Stuart"/>
        </subject>
        <created value="2024-12-10T00:00:00.0Z"/>
        <activity>
          <reference>
            <reference value="RequestGroup/66"/>
          </reference>
        </activity>
      </CarePlan>
    </resource>
  </entry>
  <entry>
    <fullUrl value="http://cancerscreeningcds.github.io/crcsm-cds/RequestGroup/66"/>
    <resource>
      <RequestGroup>
        <id value="66"/>
        <text>
          <status value="generated"/><div xmlns="http://www.w3.org/1999/xhtml"><a name="RequestGroup_66"> </a><p class="res-header-id"><b>Generated Narrative: RequestGroup 66</b></p><a name="66"> </a><a name="hc66"> </a><a name="66-en-US"> </a><p><b>instantiatesCanonical</b>: <a href="PlanDefinition-HighLevel.html">High Level Flow</a></p><p><b>status</b>: Draft</p><p><b>intent</b>: Proposal</p><p><b>subject</b>: <a href="Bundle-PollyStuart.html#Patient_PollyStuart">Polly Stuart</a></p><blockquote><p><b>action</b></p><blockquote><p><b>id</b></p>67</blockquote><p><b>title</b>: Followup Screening Result</p><p><b>description</b>: Determines next steps, if any, based on result of screening tests. This may be triggered by a diagnostic report being received by the system or a test result being documented in a structured manner.</p><p><b>resource</b>: <a href="Bundle-HighLevel_PollyStuart.html#CarePlan_69">Bundle: type = collection</a></p></blockquote></div>
        </text>
        <instantiatesCanonical value="http://cancerscreeningcds.github.io/crcsm-cds/PlanDefinition/HighLevel"/>
        <status value="draft"/>
        <intent value="proposal"/>
        <subject>
          <reference value="Patient/PollyStuart"/>
          <display value="Polly Stuart"/>
        </subject>
        <action id="67">
          <title value="Followup Screening Result"/>
          <description value="Determines next steps, if any, based on result of screening tests. This may be triggered by a diagnostic report being received by the system or a test result being documented in a structured manner."/>
          <resource>
            <reference value="CarePlan/69"/>
          </resource>
        </action>
      </RequestGroup>
    </resource>
  </entry>
  <entry>
    <fullUrl value="http://cancerscreeningcds.github.io/crcsm-cds/CarePlan/69"/>
    <resource>
      <CarePlan>
        <id value="69"/>
        <text>
          <status value="generated"/><div xmlns="http://www.w3.org/1999/xhtml"><a name="CarePlan_69"> </a><p class="res-header-id"><b>Generated Narrative: CarePlan 69</b></p><a name="69"> </a><a name="hc69"> </a><a name="69-en-US"> </a><p><b>instantiatesCanonical</b>: <a href="PlanDefinition-flow-FollowUp.html">Follow Up</a></p><p><b>status</b>: option</p><p><b>intent</b>: Proposal</p><p><b>subject</b>: <a href="Bundle-PollyStuart.html#Patient_PollyStuart">Polly Stuart</a></p><p><b>created</b>: 2024-12-10 00:00:00+0000</p><h3>Activities</h3><table class="grid"><tr><td style="display: none">-</td><td><b>Reference</b></td></tr><tr><td style="display: none">*</td><td><a href="Bundle-HighLevel_PollyStuart.html#RequestGroup_70">Bundle: type = collection</a></td></tr></table></div>
        </text>
        <instantiatesCanonical value="http://cancerscreeningcds.github.io/crcsm-cds/PlanDefinition/flow-FollowUp"/>
        <status value="option"/>
        <intent value="proposal"/>
        <subject>
          <reference value="Patient/PollyStuart"/>
          <display value="Polly Stuart"/>
        </subject>
        <created value="2024-12-10T00:00:00.0Z"/>
        <activity>
          <reference>
            <reference value="RequestGroup/70"/>
          </reference>
        </activity>
      </CarePlan>
    </resource>
  </entry>
  <entry>
    <fullUrl value="http://cancerscreeningcds.github.io/crcsm-cds/RequestGroup/70"/>
    <resource>
      <RequestGroup>
        <id value="70"/>
        <text>
          <status value="extensions"/><div xmlns="http://www.w3.org/1999/xhtml"><a name="RequestGroup_70"> </a><p class="res-header-id"><b>Generated Narrative: RequestGroup 70</b></p><a name="70"> </a><a name="hc70"> </a><a name="70-en-US"> </a><p><b>instantiatesCanonical</b>: <a href="PlanDefinition-flow-FollowUp.html">Follow Up</a></p><p><b>status</b>: Draft</p><p><b>intent</b>: Proposal</p><p><b>subject</b>: <a href="Bundle-PollyStuart.html#Patient_PollyStuart">Polly Stuart</a></p><blockquote><p><b>action</b></p><blockquote><p><b>id</b></p>FollowupColonoscopyPolypResult</blockquote><p><b>io/crcsm-cds/StructureDefinition/csm-recommendation-flag</b>: <span title="Codes:{http://cancerscreeningcds.github.io/crcsm-cds/CodeSystem/recommendation-flag-code-system overdue}">Overdue</span></p><p><b>title</b>: Follow-up with endoscopist for recommendation</p><p><b>description</b>: Follow-up with endoscopist to determine appropriate interval for next screening/surveillance colonoscopy.</p><p><b>code</b>: <span title="Codes:{http://cancerscreeningcds.github.io/crcsm-cds/CodeSystem/plan-definition-action-code-system endoscopistrecs}">Follow-up with endoscopist for recommendations</span></p><p><b>timing</b>: Events: 2024-02-18 00:00:00+0000 </p><p><b>resource</b>: <a href="Bundle-HighLevel_PollyStuart.html#ServiceRequest_71">Bundle: type = collection</a></p></blockquote></div>
        </text>
        <instantiatesCanonical value="http://cancerscreeningcds.github.io/crcsm-cds/PlanDefinition/flow-FollowUp"/>
        <status value="draft"/>
        <intent value="proposal"/>
        <subject>
          <reference value="Patient/PollyStuart"/>
          <display value="Polly Stuart"/>
        </subject>
        <action id="FollowupColonoscopyPolypResult">
          <extension url="http://cancerscreeningcds.github.io/crcsm-cds/StructureDefinition/csm-recommendation-flag">
            <valueCodeableConcept>
              <coding>
                <system value="http://cancerscreeningcds.github.io/crcsm-cds/CodeSystem/recommendation-flag-code-system"/>
                <code value="overdue"/>
                <display value="Overdue"/>
              </coding>
            </valueCodeableConcept>
          </extension>
          <title value="Follow-up with endoscopist for recommendation"/>
          <description value="Follow-up with endoscopist to determine appropriate interval for next screening/surveillance colonoscopy."/>
          <code>
            <coding>
              <system value="http://cancerscreeningcds.github.io/crcsm-cds/CodeSystem/plan-definition-action-code-system"/>
              <code value="endoscopistrecs"/>
              <display value="Follow-up with endoscopist for recommendations"/>
            </coding>
          </code>
          <timingTiming>
            <event value="2024-02-18T00:00:00.000+00:00"/>
          </timingTiming>
          <resource>
            <reference value="ServiceRequest/71"/>
          </resource>
        </action>
      </RequestGroup>
    </resource>
  </entry>
  <entry>
    <fullUrl value="http://cancerscreeningcds.github.io/crcsm-cds/ServiceRequest/71"/>
    <resource>
      <ServiceRequest>
        <id value="71"/>
        <text>
          <status value="generated"/><div xmlns="http://www.w3.org/1999/xhtml"><a name="ServiceRequest_71"> </a><p class="res-header-id"><b>Generated Narrative: ServiceRequest 71</b></p><a name="71"> </a><a name="hc71"> </a><a name="71-en-US"> </a><p><b>basedOn</b>: <a href="ActivityDefinition-ColorectalCancerScreeningServiceRequest.html">Colorectal Cancer Screening Service Request</a></p><p><b>status</b>: option</p><p><b>intent</b>: Proposal</p><p><b>code</b>: <span title="Codes:{http://cancerscreeningcds.github.io/crcsm-cds/CodeSystem/plan-definition-action-code-system endoscopistrecs}">Follow-up with endoscopist for recommendations</span></p><p><b>subject</b>: <a href="Bundle-PollyStuart.html#Patient_PollyStuart">Polly Stuart</a></p><p><b>occurrence</b>: 2024-02-18 00:00:00+0000</p><p><b>reasonCode</b>: <span title="Codes:{http://cancerscreeningcds.github.io/crcsm-cds/CodeSystem/colonoscopy-result-observation-code-system missingrec}">Missing endoscopist recommendation for potentially precancerous polyp finding</span></p></div>
        </text>
        <basedOn>
          <reference value="http://cancerscreeningcds.github.io/crcsm-cds/ActivityDefinition/ColorectalCancerScreeningServiceRequest"/>
        </basedOn>
        <status value="option"/>
        <intent value="proposal"/>
        <code>
          <coding>
            <system value="http://cancerscreeningcds.github.io/crcsm-cds/CodeSystem/plan-definition-action-code-system"/>
            <code value="endoscopistrecs"/>
            <display value="Follow-up with endoscopist for recommendations"/>
          </coding>
        </code>
        <subject>
          <reference value="Patient/PollyStuart"/>
          <display value="Polly Stuart"/>
        </subject>
        <occurrenceDateTime value="2024-02-18T00:00:00.000+00:00"/>
        <reasonCode>
          <coding>
            <system value="http://cancerscreeningcds.github.io/crcsm-cds/CodeSystem/colonoscopy-result-observation-code-system"/>
            <code value="missingrec"/>
            <display value="Missing endoscopist recommendation for potentially precancerous polyp finding"/>
          </coding>
        </reasonCode>
      </ServiceRequest>
    </resource>
  </entry>
</Bundle>