{
  "resourceType" : "Bundle",
  "id" : "eve-nextdueexists_yes_eve-DetermineIfDueForScreening_notdue_end-1",
  "type" : "collection",
  "entry" : [{
    "resource" : {
      "resourceType" : "Patient",
      "id" : "fc475feb-bce8-419d-ac5d-f786a82e0470",
      "text" : {
        "status" : "generated",
        "div" : "<div xmlns=\"http://www.w3.org/1999/xhtml\"><a name=\"Patient_fc475feb-bce8-419d-ac5d-f786a82e0470\"> </a><p class=\"res-header-id\"><b>Generated Narrative: Patient fc475feb-bce8-419d-ac5d-f786a82e0470</b></p><a name=\"fc475feb-bce8-419d-ac5d-f786a82e0470\"> </a><a name=\"hcfc475feb-bce8-419d-ac5d-f786a82e0470\"> </a><a name=\"fc475feb-bce8-419d-ac5d-f786a82e0470-en-US\"> </a><p style=\"border: 1px #661aff solid; background-color: #e6e6ff; padding: 10px;\">Joanne Smith  Other, DoB: 1971-01-01</p><hr/><table class=\"grid\"><tr><td style=\"background-color: #f3f5da\" title=\"A code classifying the person's sex assigned at birth  as specified by the [Office of the National Coordinator for Health IT (ONC)](https://www.healthit.gov/newsroom/about-onc). This extension aligns with the C-CDA Birth Sex Observation (LOINC 76689-9).\"><a href=\"http://hl7.org/fhir/us/core/STU3.1/StructureDefinition-us-core-birthsex.html\">US Core Birth Sex Extension</a></td><td colspan=\"3\">F</td></tr></table></div>"
      },
      "extension" : [{
        "url" : "http://hl7.org/fhir/us/core/StructureDefinition/us-core-birthsex",
        "valueCode" : "F"
      }],
      "name" : [{
        "family" : "Smith",
        "given" : ["Joanne"]
      }],
      "gender" : "other",
      "birthDate" : "1971-01-01"
    }
  },
  {
    "resource" : {
      "resourceType" : "CarePlan",
      "id" : "37c0ef8a-c49b-4546-967c-08d6a0c5efdb",
      "text" : {
        "status" : "generated",
        "div" : "<div xmlns=\"http://www.w3.org/1999/xhtml\"><a name=\"CarePlan_37c0ef8a-c49b-4546-967c-08d6a0c5efdb\"> </a><p class=\"res-header-id\"><b>Generated Narrative: CarePlan 37c0ef8a-c49b-4546-967c-08d6a0c5efdb</b></p><a name=\"37c0ef8a-c49b-4546-967c-08d6a0c5efdb\"> </a><a name=\"hc37c0ef8a-c49b-4546-967c-08d6a0c5efdb\"> </a><a name=\"37c0ef8a-c49b-4546-967c-08d6a0c5efdb-en-US\"> </a><p><b>status</b>: Active</p><p><b>category</b>: <span title=\"Codes:{http://snomed.info/sct 268548003}\">Screening for malignant neoplasm of large intestine (procedure)</span></p><p><b>subject</b>: <a href=\"Bundle-eve-nextdueexists_yes_eve-DetermineIfDueForScreening_notdue_end-1.html#Patient_fc475feb-bce8-419d-ac5d-f786a82e0470\">Bundle: type = collection</a></p><p><b>created</b>: 2024-06-01</p><h3>Activities</h3><table class=\"grid\"><tr><td style=\"display: none\">-</td><td><b>Reference</b></td></tr><tr><td style=\"display: none\">*</td><td><a href=\"Bundle-eve-nextdueexists_no_act-determinedue.html#RequestGroup_RequestGroup-1\">Bundle: type = collection</a></td></tr></table></div>"
      },
      "status" : "active",
      "category" : [{
        "coding" : [{
          "system" : "http://snomed.info/sct",
          "code" : "268548003",
          "display" : "Screening for malignant neoplasm of large intestine (procedure)"
        }]
      }],
      "subject" : {
        "reference" : "Patient/fc475feb-bce8-419d-ac5d-f786a82e0470"
      },
      "created" : "2024-06-01",
      "activity" : [{
        "reference" : {
          "reference" : "RequestGroup/RequestGroup-1"
        }
      }]
    }
  },
  {
    "resource" : {
      "resourceType" : "RequestGroup",
      "id" : "RequestGroup-1",
      "text" : {
        "status" : "generated",
        "div" : "<div xmlns=\"http://www.w3.org/1999/xhtml\"><a name=\"RequestGroup_RequestGroup-1\"> </a><p class=\"res-header-id\"><b>Generated Narrative: RequestGroup RequestGroup-1</b></p><a name=\"RequestGroup-1\"> </a><a name=\"hcRequestGroup-1\"> </a><a name=\"RequestGroup-1-en-US\"> </a><p><b>status</b>: Active</p><p><b>intent</b>: Order</p><p><b>subject</b>: <a href=\"Bundle-eve-nextdueexists_yes_eve-DetermineIfDueForScreening_notdue_end-1.html#Patient_fc475feb-bce8-419d-ac5d-f786a82e0470\">Bundle: type = collection</a></p><h3>Actions</h3><table class=\"grid\"><tr><td style=\"display: none\">-</td><td><b>Code</b></td><td><b>Timing[x]</b></td></tr><tr><td style=\"display: none\">*</td><td><span title=\"Codes:{http://loinc.org 29771-3}\">Hemoglobin.gastrointestinal [Presence] in Stool by Immunologic method</span></td><td>Events: 2025-12-01 </td></tr></table></div>"
      },
      "status" : "active",
      "intent" : "order",
      "subject" : {
        "reference" : "Patient/fc475feb-bce8-419d-ac5d-f786a82e0470"
      },
      "action" : [{
        "code" : [{
          "coding" : [{
            "system" : "http://loinc.org",
            "code" : "29771-3",
            "display" : "Hemoglobin.gastrointestinal [Presence] in Stool by Immunologic method"
          }]
        }],
        "timingTiming" : {
          "event" : ["2025-12-01"]
        }
      }]
    }
  }]
}