{
  "resourceType" : "Bundle",
  "id" : "FollowUp_PollyStuart",
  "type" : "collection",
  "entry" : [{
    "fullUrl" : "http://cancerscreeningcds.github.io/crcsm-cds/CarePlan/137",
    "resource" : {
      "resourceType" : "CarePlan",
      "id" : "137",
      "text" : {
        "status" : "generated",
        "div" : "<div xmlns=\"http://www.w3.org/1999/xhtml\"><a name=\"CarePlan_137\"> </a><p class=\"res-header-id\"><b>Generated Narrative: CarePlan 137</b></p><a name=\"137\"> </a><a name=\"hc137\"> </a><a name=\"137-en-US\"> </a><p><b>instantiatesCanonical</b>: <a href=\"PlanDefinition-flow-FollowUp.html\">Follow Up</a></p><p><b>status</b>: Draft</p><p><b>intent</b>: Proposal</p><p><b>subject</b>: <a href=\"Bundle-PollyStuart.html#Patient_PollyStuart\">Polly Stuart</a></p><p><b>created</b>: 2024-12-10 00:00:00+0000</p><h3>Activities</h3><table class=\"grid\"><tr><td style=\"display: none\">-</td><td><b>Reference</b></td></tr><tr><td style=\"display: none\">*</td><td><a href=\"Bundle-DecisionToScreen_HankCarlson.html#RequestGroup_138\">Bundle: type = collection</a></td></tr></table></div>"
      },
      "instantiatesCanonical" : ["http://cancerscreeningcds.github.io/crcsm-cds/PlanDefinition/flow-FollowUp"],
      "status" : "draft",
      "intent" : "proposal",
      "subject" : {
        "reference" : "Patient/PollyStuart",
        "display" : "Polly Stuart"
      },
      "created" : "2024-12-10T00:00:00.0Z",
      "activity" : [{
        "reference" : {
          "reference" : "RequestGroup/138"
        }
      }]
    }
  },
  {
    "fullUrl" : "http://cancerscreeningcds.github.io/crcsm-cds/RequestGroup/138",
    "resource" : {
      "resourceType" : "RequestGroup",
      "id" : "138",
      "text" : {
        "status" : "extensions",
        "div" : "<div xmlns=\"http://www.w3.org/1999/xhtml\"><a name=\"RequestGroup_138\"> </a><p class=\"res-header-id\"><b>Generated Narrative: RequestGroup 138</b></p><a name=\"138\"> </a><a name=\"hc138\"> </a><a name=\"138-en-US\"> </a><p><b>instantiatesCanonical</b>: <a href=\"PlanDefinition-flow-FollowUp.html\">Follow Up</a></p><p><b>status</b>: Draft</p><p><b>intent</b>: Proposal</p><p><b>subject</b>: <a href=\"Bundle-PollyStuart.html#Patient_PollyStuart\">Polly Stuart</a></p><blockquote><p><b>action</b></p><blockquote><p><b>id</b></p>FollowupColonoscopyPolypResult</blockquote><p><b>io/crcsm-cds/StructureDefinition/csm-recommendation-flag</b>: <span title=\"Codes:{http://cancerscreeningcds.github.io/crcsm-cds/CodeSystem/recommendation-flag-code-system overdue}\">Overdue</span></p><p><b>title</b>: Follow-up with endoscopist for recommendation</p><p><b>description</b>: Follow-up with endoscopist to determine appropriate interval for next screening/surveillance colonoscopy.</p><p><b>code</b>: <span title=\"Codes:{http://cancerscreeningcds.github.io/crcsm-cds/CodeSystem/plan-definition-action-code-system endoscopistrecs}\">Follow-up with endoscopist for recommendations</span></p><p><b>timing</b>: Events: 2024-02-18 00:00:00+0000 </p><p><b>resource</b>: <a href=\"Bundle-DecisionToScreen_HankCarlson.html#ServiceRequest_139\">Bundle: type = collection</a></p></blockquote></div>"
      },
      "instantiatesCanonical" : ["http://cancerscreeningcds.github.io/crcsm-cds/PlanDefinition/flow-FollowUp"],
      "status" : "draft",
      "intent" : "proposal",
      "subject" : {
        "reference" : "Patient/PollyStuart",
        "display" : "Polly Stuart"
      },
      "action" : [{
        "id" : "FollowupColonoscopyPolypResult",
        "extension" : [{
          "url" : "http://cancerscreeningcds.github.io/crcsm-cds/StructureDefinition/csm-recommendation-flag",
          "valueCodeableConcept" : {
            "coding" : [{
              "system" : "http://cancerscreeningcds.github.io/crcsm-cds/CodeSystem/recommendation-flag-code-system",
              "code" : "overdue",
              "display" : "Overdue"
            }]
          }
        }],
        "title" : "Follow-up with endoscopist for recommendation",
        "description" : "Follow-up with endoscopist to determine appropriate interval for next screening/surveillance colonoscopy.",
        "code" : [{
          "coding" : [{
            "system" : "http://cancerscreeningcds.github.io/crcsm-cds/CodeSystem/plan-definition-action-code-system",
            "code" : "endoscopistrecs",
            "display" : "Follow-up with endoscopist for recommendations"
          }]
        }],
        "timingTiming" : {
          "event" : ["2024-02-18T00:00:00.000+00:00"]
        },
        "resource" : {
          "reference" : "ServiceRequest/139"
        }
      }]
    }
  },
  {
    "fullUrl" : "http://cancerscreeningcds.github.io/crcsm-cds/ServiceRequest/139",
    "resource" : {
      "resourceType" : "ServiceRequest",
      "id" : "139",
      "text" : {
        "status" : "generated",
        "div" : "<div xmlns=\"http://www.w3.org/1999/xhtml\"><a name=\"ServiceRequest_139\"> </a><p class=\"res-header-id\"><b>Generated Narrative: ServiceRequest 139</b></p><a name=\"139\"> </a><a name=\"hc139\"> </a><a name=\"139-en-US\"> </a><p><b>basedOn</b>: <a href=\"ActivityDefinition-ColorectalCancerScreeningServiceRequest.html\">Colorectal Cancer Screening Service Request</a></p><p><b>status</b>: option</p><p><b>intent</b>: Proposal</p><p><b>code</b>: <span title=\"Codes:{http://cancerscreeningcds.github.io/crcsm-cds/CodeSystem/plan-definition-action-code-system endoscopistrecs}\">Follow-up with endoscopist for recommendations</span></p><p><b>subject</b>: <a href=\"Bundle-PollyStuart.html#Patient_PollyStuart\">Polly Stuart</a></p><p><b>occurrence</b>: 2024-02-18 00:00:00+0000</p><p><b>reasonCode</b>: <span title=\"Codes:{http://cancerscreeningcds.github.io/crcsm-cds/CodeSystem/colonoscopy-result-observation-code-system missingrec}\">Missing endoscopist recommendation for potentially precancerous polyp finding</span></p></div>"
      },
      "basedOn" : [{
        "reference" : "http://cancerscreeningcds.github.io/crcsm-cds/ActivityDefinition/ColorectalCancerScreeningServiceRequest"
      }],
      "status" : "option",
      "intent" : "proposal",
      "code" : {
        "coding" : [{
          "system" : "http://cancerscreeningcds.github.io/crcsm-cds/CodeSystem/plan-definition-action-code-system",
          "code" : "endoscopistrecs",
          "display" : "Follow-up with endoscopist for recommendations"
        }]
      },
      "subject" : {
        "reference" : "Patient/PollyStuart",
        "display" : "Polly Stuart"
      },
      "occurrenceDateTime" : "2024-02-18T00:00:00.000+00:00",
      "reasonCode" : [{
        "coding" : [{
          "system" : "http://cancerscreeningcds.github.io/crcsm-cds/CodeSystem/colonoscopy-result-observation-code-system",
          "code" : "missingrec",
          "display" : "Missing endoscopist recommendation for potentially precancerous polyp finding"
        }]
      }]
    }
  }]
}