<?xml version="1.0" encoding="UTF-8"?>

<Bundle xmlns="http://hl7.org/fhir">
  <id value="eve-nextdueexists_yes_eve-DetermineIfDueForScreening_overdue_act-patientOutreach_act-orderTest"/>
  <type value="collection"/>
  <entry>
    <resource>
      <Patient>
        <id value="e9185ad8-cc17-459e-8dc1-cc77a93e18a6"/>
        <text>
          <status value="generated"/><div xmlns="http://www.w3.org/1999/xhtml"><a name="Patient_e9185ad8-cc17-459e-8dc1-cc77a93e18a6"> </a><p class="res-header-id"><b>Generated Narrative: Patient e9185ad8-cc17-459e-8dc1-cc77a93e18a6</b></p><a name="e9185ad8-cc17-459e-8dc1-cc77a93e18a6"> </a><a name="hce9185ad8-cc17-459e-8dc1-cc77a93e18a6"> </a><a name="e9185ad8-cc17-459e-8dc1-cc77a93e18a6-en-US"> </a><p style="border: 1px #661aff solid; background-color: #e6e6ff; padding: 10px;">Joanne Smith  Other, DoB: 1971-01-01</p><hr/><table class="grid"><tr><td style="background-color: #f3f5da" title="A code classifying the person's sex assigned at birth  as specified by the [Office of the National Coordinator for Health IT (ONC)](https://www.healthit.gov/newsroom/about-onc). This extension aligns with the C-CDA Birth Sex Observation (LOINC 76689-9)."><a href="http://hl7.org/fhir/us/core/STU3.1/StructureDefinition-us-core-birthsex.html">US Core Birth Sex Extension</a></td><td colspan="3">F</td></tr></table></div>
        </text>
        <extension url="http://hl7.org/fhir/us/core/StructureDefinition/us-core-birthsex">
          <valueCode value="F"/>
        </extension>
        <name>
          <family value="Smith"/>
          <given value="Joanne"/>
        </name>
        <gender value="other"/>
        <birthDate value="1971-01-01"/>
      </Patient>
    </resource>
  </entry>
  <entry>
    <resource>
      <CarePlan>
        <id value="545268ce-b8aa-4cef-841b-8de056c56965"/>
        <text>
          <status value="generated"/><div xmlns="http://www.w3.org/1999/xhtml"><a name="CarePlan_545268ce-b8aa-4cef-841b-8de056c56965"> </a><p class="res-header-id"><b>Generated Narrative: CarePlan 545268ce-b8aa-4cef-841b-8de056c56965</b></p><a name="545268ce-b8aa-4cef-841b-8de056c56965"> </a><a name="hc545268ce-b8aa-4cef-841b-8de056c56965"> </a><a name="545268ce-b8aa-4cef-841b-8de056c56965-en-US"> </a><p><b>status</b>: Active</p><p><b>category</b>: <span title="Codes:{http://snomed.info/sct 268548003}">Screening for malignant neoplasm of large intestine (procedure)</span></p><p><b>subject</b>: <a href="Bundle-eve-nextdueexists_yes_eve-DetermineIfDueForScreening_overdue_act-patientOutreach_act-orderTest.html#Patient_e9185ad8-cc17-459e-8dc1-cc77a93e18a6">Bundle: type = collection</a></p><p><b>created</b>: 2024-04-01</p><h3>Activities</h3><table class="grid"><tr><td style="display: none">-</td><td><b>Reference</b></td></tr><tr><td style="display: none">*</td><td><a href="Bundle-eve-nextdueexists_no_act-determinedue.html#RequestGroup_RequestGroup-1">Bundle: type = collection</a></td></tr></table></div>
        </text>
        <status value="active"/>
        <category>
          <coding>
            <system value="http://snomed.info/sct"/>
            <code value="268548003"/>
            <display value="Screening for malignant neoplasm of large intestine (procedure)"/>
          </coding>
        </category>
        <subject>
          <reference value="Patient/e9185ad8-cc17-459e-8dc1-cc77a93e18a6"/>
        </subject>
        <created value="2024-04-01"/>
        <activity>
          <reference>
            <reference value="RequestGroup/RequestGroup-1"/>
          </reference>
        </activity>
      </CarePlan>
    </resource>
  </entry>
  <entry>
    <resource>
      <RequestGroup>
        <id value="RequestGroup-1"/>
        <text>
          <status value="generated"/><div xmlns="http://www.w3.org/1999/xhtml"><a name="RequestGroup_RequestGroup-1"> </a><p class="res-header-id"><b>Generated Narrative: RequestGroup RequestGroup-1</b></p><a name="RequestGroup-1"> </a><a name="hcRequestGroup-1"> </a><a name="RequestGroup-1-en-US"> </a><p><b>status</b>: Active</p><p><b>intent</b>: Order</p><p><b>subject</b>: <a href="Bundle-eve-nextdueexists_yes_eve-DetermineIfDueForScreening_overdue_act-patientOutreach_act-orderTest.html#Patient_e9185ad8-cc17-459e-8dc1-cc77a93e18a6">Bundle: type = collection</a></p><h3>Actions</h3><table class="grid"><tr><td style="display: none">-</td><td><b>Code</b></td><td><b>Timing[x]</b></td></tr><tr><td style="display: none">*</td><td><span title="Codes:{http://snomed.info/sct 268548003}">Screening for malignant neoplasm of large intestine (procedure)</span></td><td>Events: 2024-04-01 , Once per 1 year</td></tr></table></div>
        </text>
        <status value="active"/>
        <intent value="order"/>
        <subject>
          <reference value="Patient/e9185ad8-cc17-459e-8dc1-cc77a93e18a6"/>
        </subject>
        <action>
          <code>
            <coding>
              <system value="http://snomed.info/sct"/>
              <code value="268548003"/>
              <display value="Screening for malignant neoplasm of large intestine (procedure)"/>
            </coding>
          </code>
          <timingTiming>
            <event value="2024-04-01"/>
            <repeat>
              <frequency value="1"/>
              <period value="1"/>
              <periodUnit value="a"/>
            </repeat>
          </timingTiming>
        </action>
      </RequestGroup>
    </resource>
  </entry>
</Bundle>