{
  "resourceType" : "Bundle",
  "id" : "DecisionToScreen_eve-Age86AndOlder_yes_act-HarmsLikelyOutweighBenefits",
  "type" : "collection",
  "entry" : [{
    "fullUrl" : "http://cancerscreeningcds.github.io/crcsm-cds/CarePlan/170",
    "resource" : {
      "resourceType" : "CarePlan",
      "id" : "170",
      "text" : {
        "status" : "generated",
        "div" : "<div xmlns=\"http://www.w3.org/1999/xhtml\"><a name=\"CarePlan_170\"> </a><p class=\"res-header-id\"><b>Generated Narrative: CarePlan 170</b></p><a name=\"170\"> </a><a name=\"hc170\"> </a><a name=\"170-en-US\"> </a><p><b>instantiatesCanonical</b>: <a href=\"PlanDefinition-flow-DecisionToScreen.html\">Decision to Screen</a></p><p><b>status</b>: Draft</p><p><b>intent</b>: Proposal</p><p><b>subject</b>: <a href=\"Patient/3790c956-09bd-4e4b-9e9d-f28dee75b25f\">Joanne Smith</a></p><p><b>created</b>: 2024-12-10 00:00:00+0000</p><h3>Activities</h3><table class=\"grid\"><tr><td style=\"display: none\">-</td><td><b>Reference</b></td></tr><tr><td style=\"display: none\">*</td><td><a href=\"Bundle-DecisionToScreen_eve-Age86AndOlder_yes_act-HarmsLikelyOutweighBenefits.html#RequestGroup_171\">Bundle: type = collection</a></td></tr></table></div>"
      },
      "instantiatesCanonical" : ["http://cancerscreeningcds.github.io/crcsm-cds/PlanDefinition/flow-DecisionToScreen"],
      "status" : "draft",
      "intent" : "proposal",
      "subject" : {
        "reference" : "Patient/3790c956-09bd-4e4b-9e9d-f28dee75b25f",
        "display" : "Joanne Smith"
      },
      "created" : "2024-12-10T00:00:00.0Z",
      "activity" : [{
        "reference" : {
          "reference" : "RequestGroup/171"
        }
      }]
    }
  },
  {
    "fullUrl" : "http://cancerscreeningcds.github.io/crcsm-cds/RequestGroup/171",
    "resource" : {
      "resourceType" : "RequestGroup",
      "id" : "171",
      "text" : {
        "status" : "generated",
        "div" : "<div xmlns=\"http://www.w3.org/1999/xhtml\"><a name=\"RequestGroup_171\"> </a><p class=\"res-header-id\"><b>Generated Narrative: RequestGroup 171</b></p><a name=\"171\"> </a><a name=\"hc171\"> </a><a name=\"171-en-US\"> </a><p><b>instantiatesCanonical</b>: <a href=\"PlanDefinition-flow-DecisionToScreen.html\">Decision to Screen</a></p><p><b>status</b>: Draft</p><p><b>intent</b>: Proposal</p><p><b>subject</b>: <a href=\"Patient/3790c956-09bd-4e4b-9e9d-f28dee75b25f\">Joanne Smith</a></p><blockquote><p><b>action</b></p><blockquote><p><b>id</b></p>StopScreeningAge</blockquote><p><b>title</b>: Stop screening</p><p><b>description</b>: Evidence is lacking on benefits and harms of colorectal cancer screening for individuals aged 86 and older. Competing causes of mortality likely preclude survival benefit that would outweigh the harms of screening.</p><p><b>resource</b>: <a href=\"Bundle-DecisionToScreen_eve-Age86AndOlder_yes_act-HarmsLikelyOutweighBenefits.html#CommunicationRequest_172\">Bundle: type = collection</a></p></blockquote></div>"
      },
      "instantiatesCanonical" : ["http://cancerscreeningcds.github.io/crcsm-cds/PlanDefinition/flow-DecisionToScreen"],
      "status" : "draft",
      "intent" : "proposal",
      "subject" : {
        "reference" : "Patient/3790c956-09bd-4e4b-9e9d-f28dee75b25f",
        "display" : "Joanne Smith"
      },
      "action" : [{
        "id" : "StopScreeningAge",
        "title" : "Stop screening",
        "description" : "Evidence is lacking on benefits and harms of colorectal cancer screening for individuals aged 86 and older. Competing causes of mortality likely preclude survival benefit that would outweigh the harms of screening.",
        "resource" : {
          "reference" : "CommunicationRequest/172"
        }
      }]
    }
  },
  {
    "fullUrl" : "http://cancerscreeningcds.github.io/crcsm-cds/CommunicationRequest/172",
    "resource" : {
      "resourceType" : "CommunicationRequest",
      "id" : "172",
      "text" : {
        "status" : "generated",
        "div" : "<div xmlns=\"http://www.w3.org/1999/xhtml\"><a name=\"CommunicationRequest_172\"> </a><p class=\"res-header-id\"><b>Generated Narrative: CommunicationRequest 172</b></p><a name=\"172\"> </a><a name=\"hc172\"> </a><a name=\"172-en-US\"> </a><p><b>basedOn</b>: <a href=\"ActivityDefinition-CommunicateRecommendationStopScreening.html\">Communicate Recommendation to Stop Screening</a></p><p><b>status</b>: option</p><p><b>subject</b>: <a href=\"Patient/3790c956-09bd-4e4b-9e9d-f28dee75b25f\">Joanne Smith</a></p><h3>Payloads</h3><table class=\"grid\"><tr><td style=\"display: none\">-</td><td><b>Content[x]</b></td></tr><tr><td style=\"display: none\">*</td><td>Stop screening</td></tr></table><p><b>reasonCode</b>: <span title=\"Codes:{http://cancerscreeningcds.github.io/crcsm-cds/CodeSystem/plan-definition-action-reason-code-system ageover86}\">Age over 86 years</span></p></div>"
      },
      "basedOn" : [{
        "reference" : "http://cancerscreeningcds.github.io/crcsm-cds/ActivityDefinition/CommunicateRecommendationStopScreening"
      }],
      "status" : "option",
      "subject" : {
        "reference" : "Patient/3790c956-09bd-4e4b-9e9d-f28dee75b25f",
        "display" : "Joanne Smith"
      },
      "payload" : [{
        "contentString" : "Stop screening"
      }],
      "reasonCode" : [{
        "coding" : [{
          "system" : "http://cancerscreeningcds.github.io/crcsm-cds/CodeSystem/plan-definition-action-reason-code-system",
          "code" : "ageover86",
          "display" : "Age over 86 years"
        }]
      }]
    }
  }]
}