{
  "resourceType" : "Bundle",
  "id" : "FollowUp_eve-lastTestColonoscopy_no_eve-lastTestStool_yes_eve-inconclusiveStoolTest_yes_act-repeatScreening",
  "type" : "collection",
  "entry" : [{
    "fullUrl" : "http://cancerscreeningcds.github.io/crcsm-cds/CarePlan/160",
    "resource" : {
      "resourceType" : "CarePlan",
      "id" : "160",
      "text" : {
        "status" : "generated",
        "div" : "<div xmlns=\"http://www.w3.org/1999/xhtml\"><a name=\"CarePlan_160\"> </a><p class=\"res-header-id\"><b>Generated Narrative: CarePlan 160</b></p><a name=\"160\"> </a><a name=\"hc160\"> </a><a name=\"160-en-US\"> </a><p><b>instantiatesCanonical</b>: <a href=\"PlanDefinition-flow-FollowUp.html\">Follow Up</a></p><p><b>status</b>: Draft</p><p><b>intent</b>: Proposal</p><p><b>subject</b>: <a href=\"Bundle-eve-lastTestColonoscopy_no_eve-lastTestStool_yes_eve-inconclusiveStoolTest_yes_act-repeatScreening.html#Patient_d818dc51-79b8-4ccc-b9e3-3f52f48ad902\">Joanne Smith</a></p><p><b>created</b>: 2024-12-10 00:00:00+0000</p><h3>Activities</h3><table class=\"grid\"><tr><td style=\"display: none\">-</td><td><b>Reference</b></td></tr><tr><td style=\"display: none\">*</td><td><a href=\"Bundle-FollowUp_eve-lastTestColonoscopy_no_eve-lastTestStool_yes_eve-inconclusiveStoolTest_yes_act-repeatScreening.html#RequestGroup_161\">Bundle: type = collection</a></td></tr></table></div>"
      },
      "instantiatesCanonical" : ["http://cancerscreeningcds.github.io/crcsm-cds/PlanDefinition/flow-FollowUp"],
      "status" : "draft",
      "intent" : "proposal",
      "subject" : {
        "reference" : "Patient/d818dc51-79b8-4ccc-b9e3-3f52f48ad902",
        "display" : "Joanne Smith"
      },
      "created" : "2024-12-10T00:00:00.0Z",
      "activity" : [{
        "reference" : {
          "reference" : "RequestGroup/161"
        }
      }]
    }
  },
  {
    "fullUrl" : "http://cancerscreeningcds.github.io/crcsm-cds/RequestGroup/161",
    "resource" : {
      "resourceType" : "RequestGroup",
      "id" : "161",
      "text" : {
        "status" : "extensions",
        "div" : "<div xmlns=\"http://www.w3.org/1999/xhtml\"><a name=\"RequestGroup_161\"> </a><p class=\"res-header-id\"><b>Generated Narrative: RequestGroup 161</b></p><a name=\"161\"> </a><a name=\"hc161\"> </a><a name=\"161-en-US\"> </a><p><b>instantiatesCanonical</b>: <a href=\"PlanDefinition-flow-FollowUp.html\">Follow Up</a></p><p><b>status</b>: Draft</p><p><b>intent</b>: Proposal</p><p><b>subject</b>: <a href=\"Bundle-eve-lastTestColonoscopy_no_eve-lastTestStool_yes_eve-inconclusiveStoolTest_yes_act-repeatScreening.html#Patient_d818dc51-79b8-4ccc-b9e3-3f52f48ad902\">Joanne Smith</a></p><blockquote><p><b>action</b></p><blockquote><p><b>id</b></p>FollowupStoolInconclusiveResult</blockquote><p><b>io/crcsm-cds/StructureDefinition/csm-recommendation-flag</b>: <span title=\"Codes:{http://cancerscreeningcds.github.io/crcsm-cds/CodeSystem/recommendation-flag-code-system due}\">Due</span></p><p><b>title</b>: Repeat screening due to inconclusive stool result</p><p><b>description</b>: Repeat screening due to inconclusive test results.</p><p><b>code</b>: <span title=\"Codes:{http://snomed.info/sct 268548003}\">Screening for malignant neoplasm of large intestine (procedure)</span></p><p><b>timing</b>: Events: 2024-10-01 14:30:00+0000 </p><p><b>resource</b>: <a href=\"Bundle-FollowUp_eve-lastTestColonoscopy_no_eve-lastTestStool_yes_eve-inconclusiveStoolTest_yes_act-repeatScreening.html#ServiceRequest_162\">Bundle: type = collection</a></p></blockquote></div>"
      },
      "instantiatesCanonical" : ["http://cancerscreeningcds.github.io/crcsm-cds/PlanDefinition/flow-FollowUp"],
      "status" : "draft",
      "intent" : "proposal",
      "subject" : {
        "reference" : "Patient/d818dc51-79b8-4ccc-b9e3-3f52f48ad902",
        "display" : "Joanne Smith"
      },
      "action" : [{
        "id" : "FollowupStoolInconclusiveResult",
        "extension" : [{
          "url" : "http://cancerscreeningcds.github.io/crcsm-cds/StructureDefinition/csm-recommendation-flag",
          "valueCodeableConcept" : {
            "coding" : [{
              "system" : "http://cancerscreeningcds.github.io/crcsm-cds/CodeSystem/recommendation-flag-code-system",
              "code" : "due",
              "display" : "Due"
            }]
          }
        }],
        "title" : "Repeat screening due to inconclusive stool result",
        "description" : "Repeat screening due to inconclusive test results.",
        "code" : [{
          "coding" : [{
            "system" : "http://snomed.info/sct",
            "code" : "268548003",
            "display" : "Screening for malignant neoplasm of large intestine (procedure)"
          }]
        }],
        "timingTiming" : {
          "event" : ["2024-10-01T14:30:00.000+00:00"]
        },
        "resource" : {
          "reference" : "ServiceRequest/162"
        }
      }]
    }
  },
  {
    "fullUrl" : "http://cancerscreeningcds.github.io/crcsm-cds/ServiceRequest/162",
    "resource" : {
      "resourceType" : "ServiceRequest",
      "id" : "162",
      "text" : {
        "status" : "generated",
        "div" : "<div xmlns=\"http://www.w3.org/1999/xhtml\"><a name=\"ServiceRequest_162\"> </a><p class=\"res-header-id\"><b>Generated Narrative: ServiceRequest 162</b></p><a name=\"162\"> </a><a name=\"hc162\"> </a><a name=\"162-en-US\"> </a><p><b>basedOn</b>: <a href=\"ActivityDefinition-ColorectalCancerScreeningServiceRequest.html\">Colorectal Cancer Screening Service Request</a></p><p><b>status</b>: option</p><p><b>intent</b>: Proposal</p><p><b>code</b>: <span title=\"Codes:{http://snomed.info/sct 268548003}\">Screening for malignant neoplasm of large intestine (procedure)</span></p><p><b>subject</b>: <a href=\"Bundle-eve-lastTestColonoscopy_no_eve-lastTestStool_yes_eve-inconclusiveStoolTest_yes_act-repeatScreening.html#Patient_d818dc51-79b8-4ccc-b9e3-3f52f48ad902\">Joanne Smith</a></p><p><b>occurrence</b>: 2024-10-01 14:30:00+0000</p><p><b>reasonCode</b>: <span title=\"Codes:{http://cancerscreeningcds.github.io/crcsm-cds/CodeSystem/plan-definition-action-reason-code-system inconclusivescreening}\">Inconclusive non-colonoscopy screening</span></p></div>"
      },
      "basedOn" : [{
        "reference" : "http://cancerscreeningcds.github.io/crcsm-cds/ActivityDefinition/ColorectalCancerScreeningServiceRequest"
      }],
      "status" : "option",
      "intent" : "proposal",
      "code" : {
        "coding" : [{
          "system" : "http://snomed.info/sct",
          "code" : "268548003",
          "display" : "Screening for malignant neoplasm of large intestine (procedure)"
        }]
      },
      "subject" : {
        "reference" : "Patient/d818dc51-79b8-4ccc-b9e3-3f52f48ad902",
        "display" : "Joanne Smith"
      },
      "occurrenceDateTime" : "2024-10-01T14:30:00.000+00:00",
      "reasonCode" : [{
        "coding" : [{
          "system" : "http://cancerscreeningcds.github.io/crcsm-cds/CodeSystem/plan-definition-action-reason-code-system",
          "code" : "inconclusivescreening",
          "display" : "Inconclusive non-colonoscopy screening"
        }]
      }]
    }
  }]
}