<?xml version="1.0" encoding="UTF-8"?>

<Bundle xmlns="http://hl7.org/fhir">
  <id value="FollowUp_eve-lastTestColonoscopy_yes_eve-colonoscopyFindingCRC_yes_act-oncologyReferral"/>
  <type value="collection"/>
  <entry>
    <fullUrl value="http://cancerscreeningcds.github.io/crcsm-cds/CarePlan/172"/>
    <resource>
      <CarePlan>
        <id value="172"/>
        <text>
          <status value="generated"/><div xmlns="http://www.w3.org/1999/xhtml"><a name="CarePlan_172"> </a><p class="res-header-id"><b>Generated Narrative: CarePlan 172</b></p><a name="172"> </a><a name="hc172"> </a><a name="172-en-US"> </a><p><b>instantiatesCanonical</b>: <a href="PlanDefinition-flow-FollowUp.html">Follow Up</a></p><p><b>status</b>: Draft</p><p><b>intent</b>: Proposal</p><p><b>subject</b>: <a href="Bundle-eve-lastTestColonoscopy_yes_eve-colonoscopyFindingCRC_yes_act-oncologyReferral.html#Patient_6573b6a7-9936-4a23-bf1a-0ec00b1e2a9d">Joanne Smith</a></p><p><b>created</b>: 2024-12-10 00:00:00+0000</p><h3>Activities</h3><table class="grid"><tr><td style="display: none">-</td><td><b>Reference</b></td></tr><tr><td style="display: none">*</td><td><a href="Bundle-FollowUp_eve-lastTestColonoscopy_yes_eve-colonoscopyFindingCRC_yes_act-oncologyReferral.html#RequestGroup_173">Bundle: type = collection</a></td></tr></table></div>
        </text>
        <instantiatesCanonical value="http://cancerscreeningcds.github.io/crcsm-cds/PlanDefinition/flow-FollowUp"/>
        <status value="draft"/>
        <intent value="proposal"/>
        <subject>
          <reference value="Patient/6573b6a7-9936-4a23-bf1a-0ec00b1e2a9d"/>
          <display value="Joanne Smith"/>
        </subject>
        <created value="2024-12-10T00:00:00.0Z"/>
        <activity>
          <reference>
            <reference value="RequestGroup/173"/>
          </reference>
        </activity>
      </CarePlan>
    </resource>
  </entry>
  <entry>
    <fullUrl value="http://cancerscreeningcds.github.io/crcsm-cds/RequestGroup/173"/>
    <resource>
      <RequestGroup>
        <id value="173"/>
        <text>
          <status value="extensions"/><div xmlns="http://www.w3.org/1999/xhtml"><a name="RequestGroup_173"> </a><p class="res-header-id"><b>Generated Narrative: RequestGroup 173</b></p><a name="173"> </a><a name="hc173"> </a><a name="173-en-US"> </a><p><b>instantiatesCanonical</b>: <a href="PlanDefinition-flow-FollowUp.html">Follow Up</a></p><p><b>status</b>: Draft</p><p><b>intent</b>: Proposal</p><p><b>subject</b>: <a href="Bundle-eve-lastTestColonoscopy_yes_eve-colonoscopyFindingCRC_yes_act-oncologyReferral.html#Patient_6573b6a7-9936-4a23-bf1a-0ec00b1e2a9d">Joanne Smith</a></p><blockquote><p><b>action</b></p><blockquote><p><b>id</b></p>FollowupColonoscopyCRCResult</blockquote><p><b>io/crcsm-cds/StructureDefinition/csm-recommendation-flag</b>: <span title="Codes:{http://cancerscreeningcds.github.io/crcsm-cds/CodeSystem/recommendation-flag-code-system due}">Due</span></p><p><b>title</b>: Refer to Oncology</p><p><b>description</b>: Refer to Oncology for evaluation.</p><p><b>code</b>: <span title="Codes:{http://cancerscreeningcds.github.io/crcsm-cds/CodeSystem/plan-definition-action-code-system oncreferral}">Oncologic referral</span></p><p><b>timing</b>: Events: 2024-10-01 00:00:00+0000 </p><p><b>resource</b>: <a href="Bundle-FollowUp_eve-lastTestColonoscopy_yes_eve-colonoscopyFindingCRC_yes_act-oncologyReferral.html#ServiceRequest_174">Bundle: type = collection</a></p></blockquote></div>
        </text>
        <instantiatesCanonical value="http://cancerscreeningcds.github.io/crcsm-cds/PlanDefinition/flow-FollowUp"/>
        <status value="draft"/>
        <intent value="proposal"/>
        <subject>
          <reference value="Patient/6573b6a7-9936-4a23-bf1a-0ec00b1e2a9d"/>
          <display value="Joanne Smith"/>
        </subject>
        <action id="FollowupColonoscopyCRCResult">
          <extension url="http://cancerscreeningcds.github.io/crcsm-cds/StructureDefinition/csm-recommendation-flag">
            <valueCodeableConcept>
              <coding>
                <system value="http://cancerscreeningcds.github.io/crcsm-cds/CodeSystem/recommendation-flag-code-system"/>
                <code value="due"/>
                <display value="Due"/>
              </coding>
            </valueCodeableConcept>
          </extension>
          <title value="Refer to Oncology"/>
          <description value="Refer to Oncology for evaluation."/>
          <code>
            <coding>
              <system value="http://cancerscreeningcds.github.io/crcsm-cds/CodeSystem/plan-definition-action-code-system"/>
              <code value="oncreferral"/>
              <display value="Oncologic referral"/>
            </coding>
          </code>
          <timingTiming>
            <event value="2024-10-01T00:00:00.000+00:00"/>
          </timingTiming>
          <resource>
            <reference value="ServiceRequest/174"/>
          </resource>
        </action>
      </RequestGroup>
    </resource>
  </entry>
  <entry>
    <fullUrl value="http://cancerscreeningcds.github.io/crcsm-cds/ServiceRequest/174"/>
    <resource>
      <ServiceRequest>
        <id value="174"/>
        <text>
          <status value="generated"/><div xmlns="http://www.w3.org/1999/xhtml"><a name="ServiceRequest_174"> </a><p class="res-header-id"><b>Generated Narrative: ServiceRequest 174</b></p><a name="174"> </a><a name="hc174"> </a><a name="174-en-US"> </a><p><b>basedOn</b>: <a href="ActivityDefinition-ColorectalCancerScreeningServiceRequest.html">Colorectal Cancer Screening Service Request</a></p><p><b>status</b>: option</p><p><b>intent</b>: Proposal</p><p><b>code</b>: <span title="Codes:{http://cancerscreeningcds.github.io/crcsm-cds/CodeSystem/plan-definition-action-code-system oncreferral}">Oncologic referral</span></p><p><b>subject</b>: <a href="Bundle-eve-lastTestColonoscopy_yes_eve-colonoscopyFindingCRC_yes_act-oncologyReferral.html#Patient_6573b6a7-9936-4a23-bf1a-0ec00b1e2a9d">Joanne Smith</a></p><p><b>occurrence</b>: 2024-10-01 00:00:00+0000</p><p><b>reasonCode</b>: <span title="Codes:{http://cancerscreeningcds.github.io/crcsm-cds/CodeSystem/colonoscopy-result-observation-code-system crcfinding}">Colorectal cancer finding</span></p></div>
        </text>
        <basedOn>
          <reference value="http://cancerscreeningcds.github.io/crcsm-cds/ActivityDefinition/ColorectalCancerScreeningServiceRequest"/>
        </basedOn>
        <status value="option"/>
        <intent value="proposal"/>
        <code>
          <coding>
            <system value="http://cancerscreeningcds.github.io/crcsm-cds/CodeSystem/plan-definition-action-code-system"/>
            <code value="oncreferral"/>
            <display value="Oncologic referral"/>
          </coding>
        </code>
        <subject>
          <reference value="Patient/6573b6a7-9936-4a23-bf1a-0ec00b1e2a9d"/>
          <display value="Joanne Smith"/>
        </subject>
        <occurrenceDateTime value="2024-10-01T00:00:00.000+00:00"/>
        <reasonCode>
          <coding>
            <system value="http://cancerscreeningcds.github.io/crcsm-cds/CodeSystem/colonoscopy-result-observation-code-system"/>
            <code value="crcfinding"/>
            <display value="Colorectal cancer finding"/>
          </coding>
        </reasonCode>
      </ServiceRequest>
    </resource>
  </entry>
</Bundle>