{
  "resourceType" : "Bundle",
  "id" : "HighLevel_SallySimpson",
  "type" : "collection",
  "entry" : [{
    "fullUrl" : "http://cancerscreeningcds.github.io/crcsm-cds/CarePlan/72",
    "resource" : {
      "resourceType" : "CarePlan",
      "id" : "72",
      "text" : {
        "status" : "generated",
        "div" : "<div xmlns=\"http://www.w3.org/1999/xhtml\"><a name=\"CarePlan_72\"> </a><p class=\"res-header-id\"><b>Generated Narrative: CarePlan 72</b></p><a name=\"72\"> </a><a name=\"hc72\"> </a><a name=\"72-en-US\"> </a><p><b>instantiatesCanonical</b>: <a href=\"PlanDefinition-HighLevel.html\">High Level Flow</a></p><p><b>status</b>: Draft</p><p><b>intent</b>: Proposal</p><p><b>subject</b>: <a href=\"Bundle-SallySimpson.html#Patient_SallySimpson\">Sally Simpson</a></p><p><b>created</b>: 2024-12-10 00:00:00+0000</p><h3>Activities</h3><table class=\"grid\"><tr><td style=\"display: none\">-</td><td><b>Reference</b></td></tr><tr><td style=\"display: none\">*</td><td><a href=\"Bundle-HighLevel_SallySimpson.html#RequestGroup_73\">Bundle: type = collection</a></td></tr></table></div>"
      },
      "instantiatesCanonical" : ["http://cancerscreeningcds.github.io/crcsm-cds/PlanDefinition/HighLevel"],
      "status" : "draft",
      "intent" : "proposal",
      "subject" : {
        "reference" : "Patient/SallySimpson",
        "display" : "Sally Simpson"
      },
      "created" : "2024-12-10T00:00:00.0Z",
      "activity" : [{
        "reference" : {
          "reference" : "RequestGroup/73"
        }
      }]
    }
  },
  {
    "fullUrl" : "http://cancerscreeningcds.github.io/crcsm-cds/RequestGroup/73",
    "resource" : {
      "resourceType" : "RequestGroup",
      "id" : "73",
      "text" : {
        "status" : "generated",
        "div" : "<div xmlns=\"http://www.w3.org/1999/xhtml\"><a name=\"RequestGroup_73\"> </a><p class=\"res-header-id\"><b>Generated Narrative: RequestGroup 73</b></p><a name=\"73\"> </a><a name=\"hc73\"> </a><a name=\"73-en-US\"> </a><p><b>instantiatesCanonical</b>: <a href=\"PlanDefinition-HighLevel.html\">High Level Flow</a></p><p><b>status</b>: Draft</p><p><b>intent</b>: Proposal</p><p><b>subject</b>: <a href=\"Bundle-SallySimpson.html#Patient_SallySimpson\">Sally Simpson</a></p><blockquote><p><b>action</b></p><blockquote><p><b>id</b></p>75</blockquote><p><b>title</b>: Primary Screening Decision</p><p><b>description</b>: Primary Screening Decision pathway.</p><p><b>resource</b>: <a href=\"Bundle-HighLevel_SallySimpson.html#CarePlan_76\">Bundle: type = collection</a></p></blockquote></div>"
      },
      "instantiatesCanonical" : ["http://cancerscreeningcds.github.io/crcsm-cds/PlanDefinition/HighLevel"],
      "status" : "draft",
      "intent" : "proposal",
      "subject" : {
        "reference" : "Patient/SallySimpson",
        "display" : "Sally Simpson"
      },
      "action" : [{
        "id" : "75",
        "title" : "Primary Screening Decision",
        "description" : "Primary Screening Decision pathway.",
        "resource" : {
          "reference" : "CarePlan/76"
        }
      }]
    }
  },
  {
    "fullUrl" : "http://cancerscreeningcds.github.io/crcsm-cds/CarePlan/76",
    "resource" : {
      "resourceType" : "CarePlan",
      "id" : "76",
      "text" : {
        "status" : "generated",
        "div" : "<div xmlns=\"http://www.w3.org/1999/xhtml\"><a name=\"CarePlan_76\"> </a><p class=\"res-header-id\"><b>Generated Narrative: CarePlan 76</b></p><a name=\"76\"> </a><a name=\"hc76\"> </a><a name=\"76-en-US\"> </a><p><b>instantiatesCanonical</b>: <a href=\"PlanDefinition-PrimaryScreeningDecision.html\">Primary Screening Decision</a></p><p><b>status</b>: option</p><p><b>intent</b>: Proposal</p><p><b>subject</b>: <a href=\"Bundle-SallySimpson.html#Patient_SallySimpson\">Sally Simpson</a></p><p><b>created</b>: 2024-12-10 00:00:00+0000</p><h3>Activities</h3><table class=\"grid\"><tr><td style=\"display: none\">-</td><td><b>Reference</b></td></tr><tr><td style=\"display: none\">*</td><td><a href=\"Bundle-HighLevel_SallySimpson.html#RequestGroup_77\">Bundle: type = collection</a></td></tr></table></div>"
      },
      "instantiatesCanonical" : ["http://cancerscreeningcds.github.io/crcsm-cds/PlanDefinition/PrimaryScreeningDecision"],
      "status" : "option",
      "intent" : "proposal",
      "subject" : {
        "reference" : "Patient/SallySimpson",
        "display" : "Sally Simpson"
      },
      "created" : "2024-12-10T00:00:00.0Z",
      "activity" : [{
        "reference" : {
          "reference" : "RequestGroup/77"
        }
      }]
    }
  },
  {
    "fullUrl" : "http://cancerscreeningcds.github.io/crcsm-cds/RequestGroup/77",
    "resource" : {
      "resourceType" : "RequestGroup",
      "id" : "77",
      "text" : {
        "status" : "generated",
        "div" : "<div xmlns=\"http://www.w3.org/1999/xhtml\"><a name=\"RequestGroup_77\"> </a><p class=\"res-header-id\"><b>Generated Narrative: RequestGroup 77</b></p><a name=\"77\"> </a><a name=\"hc77\"> </a><a name=\"77-en-US\"> </a><p><b>instantiatesCanonical</b>: <a href=\"PlanDefinition-PrimaryScreeningDecision.html\">Primary Screening Decision</a></p><p><b>status</b>: Draft</p><p><b>intent</b>: Proposal</p><p><b>subject</b>: <a href=\"Bundle-SallySimpson.html#Patient_SallySimpson\">Sally Simpson</a></p><blockquote><p><b>action</b></p><blockquote><p><b>id</b></p>Not Screening Eligible</blockquote><p><b>title</b>: Not Screening Eligible</p><p><b>description</b>: Patient is not eligible for screening</p><p><b>code</b>: <span title=\"Codes:{http://cancerscreeningcds.github.io/crcsm-cds/CodeSystem/plan-definition-action-code-system noteligible}\">Not eligible for screening</span></p><p><b>resource</b>: <a href=\"Bundle-HighLevel_SallySimpson.html#CommunicationRequest_78\">Bundle: type = collection</a></p></blockquote></div>"
      },
      "instantiatesCanonical" : ["http://cancerscreeningcds.github.io/crcsm-cds/PlanDefinition/PrimaryScreeningDecision"],
      "status" : "draft",
      "intent" : "proposal",
      "subject" : {
        "reference" : "Patient/SallySimpson",
        "display" : "Sally Simpson"
      },
      "action" : [{
        "id" : "Not Screening Eligible",
        "title" : "Not Screening Eligible",
        "description" : "Patient is not eligible for screening",
        "code" : [{
          "coding" : [{
            "system" : "http://cancerscreeningcds.github.io/crcsm-cds/CodeSystem/plan-definition-action-code-system",
            "code" : "noteligible",
            "display" : "Not eligible for screening"
          }]
        }],
        "resource" : {
          "reference" : "CommunicationRequest/78"
        }
      }]
    }
  },
  {
    "fullUrl" : "http://cancerscreeningcds.github.io/crcsm-cds/CommunicationRequest/78",
    "resource" : {
      "resourceType" : "CommunicationRequest",
      "id" : "78",
      "text" : {
        "status" : "generated",
        "div" : "<div xmlns=\"http://www.w3.org/1999/xhtml\"><a name=\"CommunicationRequest_78\"> </a><p class=\"res-header-id\"><b>Generated Narrative: CommunicationRequest 78</b></p><a name=\"78\"> </a><a name=\"hc78\"> </a><a name=\"78-en-US\"> </a><p><b>basedOn</b>: <a href=\"ActivityDefinition-CommunicateNotEligible.html\">Communicate Not Eligible</a></p><p><b>status</b>: option</p><p><b>subject</b>: <a href=\"Bundle-SallySimpson.html#Patient_SallySimpson\">Sally Simpson</a></p><h3>Payloads</h3><table class=\"grid\"><tr><td style=\"display: none\">-</td><td><b>Content[x]</b></td></tr><tr><td style=\"display: none\">*</td><td>Not eligible for screening</td></tr></table><p><b>reasonCode</b>: <span title=\"Codes:{http://cancerscreeningcds.github.io/crcsm-cds/CodeSystem/plan-definition-action-reason-code-system diagtesting}\">Diagnostic testing</span></p></div>"
      },
      "basedOn" : [{
        "reference" : "http://cancerscreeningcds.github.io/crcsm-cds/ActivityDefinition/CommunicateNotEligible"
      }],
      "status" : "option",
      "subject" : {
        "reference" : "Patient/SallySimpson",
        "display" : "Sally Simpson"
      },
      "payload" : [{
        "contentString" : "Not eligible for screening"
      }],
      "reasonCode" : [{
        "coding" : [{
          "system" : "http://cancerscreeningcds.github.io/crcsm-cds/CodeSystem/plan-definition-action-reason-code-system",
          "code" : "diagtesting",
          "display" : "Diagnostic testing"
        }]
      }]
    }
  }]
}