<?xml version="1.0" encoding="UTF-8"?>

<Bundle xmlns="http://hl7.org/fhir">
  <id value="DecisionToScreen_eve-Age86AndOlder_no_eve-AgeOver76_yes_act-SelectivelyOfferScreening__eve-LifeExp10_no_eve-riskFactors_no_act-AvgRiskEligible"/>
  <type value="collection"/>
  <entry>
    <fullUrl value="http://cancerscreeningcds.github.io/crcsm-cds/CarePlan/154"/>
    <resource>
      <CarePlan>
        <id value="154"/>
        <text>
          <status value="generated"/><div xmlns="http://www.w3.org/1999/xhtml"><a name="CarePlan_154"> </a><p class="res-header-id"><b>Generated Narrative: CarePlan 154</b></p><a name="154"> </a><a name="hc154"> </a><a name="154-en-US"> </a><p><b>instantiatesCanonical</b>: <a href="PlanDefinition-flow-DecisionToScreen.html">Decision to Screen</a></p><p><b>status</b>: Draft</p><p><b>intent</b>: Proposal</p><p><b>subject</b>: <a href="Patient/f6453896-98e5-4bca-beac-212f208a4e17">Joanne Smith</a></p><p><b>created</b>: 2024-12-10 00:00:00+0000</p><h3>Activities</h3><table class="grid"><tr><td style="display: none">-</td><td><b>Reference</b></td></tr><tr><td style="display: none">*</td><td><a href="Bundle-DecisionToScreen_eve-Age86AndOlder_no_eve-AgeOver76_yes_act-SelectivelyOfferScreening__eve-LifeExp10_no_eve-riskFactors_no_act-AvgRiskEligible.html#RequestGroup_155">Bundle: type = collection</a></td></tr></table></div>
        </text>
        <instantiatesCanonical value="http://cancerscreeningcds.github.io/crcsm-cds/PlanDefinition/flow-DecisionToScreen"/>
        <status value="draft"/>
        <intent value="proposal"/>
        <subject>
          <reference value="Patient/f6453896-98e5-4bca-beac-212f208a4e17"/>
          <display value="Joanne Smith"/>
        </subject>
        <created value="2024-12-10T00:00:00.0Z"/>
        <activity>
          <reference>
            <reference value="RequestGroup/155"/>
          </reference>
        </activity>
      </CarePlan>
    </resource>
  </entry>
  <entry>
    <fullUrl value="http://cancerscreeningcds.github.io/crcsm-cds/RequestGroup/155"/>
    <resource>
      <RequestGroup>
        <id value="155"/>
        <text>
          <status value="generated"/><div xmlns="http://www.w3.org/1999/xhtml"><a name="RequestGroup_155"> </a><p class="res-header-id"><b>Generated Narrative: RequestGroup 155</b></p><a name="155"> </a><a name="hc155"> </a><a name="155-en-US"> </a><p><b>instantiatesCanonical</b>: <a href="PlanDefinition-flow-DecisionToScreen.html">Decision to Screen</a></p><p><b>status</b>: Draft</p><p><b>intent</b>: Proposal</p><p><b>subject</b>: <a href="Patient/f6453896-98e5-4bca-beac-212f208a4e17">Joanne Smith</a></p><blockquote><p><b>action</b></p><blockquote><p><b>id</b></p>SDMContinueScreeningAge</blockquote><p><b>title</b>: Selectively offer screening</p><p><b>description</b>: The USPSTF recommends that clinicians selectively offer screening for colorectal cancer in adults aged 76 to 85 years.</p><h3>Documentations</h3><table class="grid"><tr><td style="display: none">-</td><td><b>Type</b></td><td><b>Label</b></td><td><b>Display</b></td><td><b>Citation</b></td><td><b>Url</b></td></tr><tr><td style="display: none">*</td><td>Citation</td><td>USPSTF (2021)</td><td>Screening for Colorectal Cancer: US Preventive Services Task Force Recommendation Statement</td><td><div><p>US Preventive Services Task Force. Screening for Colorectal Cancer: US Preventive Services Task Force Recommendation Statement. JAMA. Published online May 18, 2021.</p>
</div></td><td><a href="https://www.uspreventiveservicestaskforce.org/uspstf/recommendation/colorectal-cancer-screening">https://www.uspreventiveservicestaskforce.org/uspstf/recommendation/colorectal-cancer-screening</a></td></tr></table><p><b>resource</b>: <a href="Bundle-DecisionToScreen_eve-Age86AndOlder_no_eve-AgeOver76_yes_act-SelectivelyOfferScreening__eve-LifeExp10_no_eve-riskFactors_no_act-AvgRiskEligible.html#CommunicationRequest_156">Bundle: type = collection</a></p></blockquote></div>
        </text>
        <instantiatesCanonical value="http://cancerscreeningcds.github.io/crcsm-cds/PlanDefinition/flow-DecisionToScreen"/>
        <status value="draft"/>
        <intent value="proposal"/>
        <subject>
          <reference value="Patient/f6453896-98e5-4bca-beac-212f208a4e17"/>
          <display value="Joanne Smith"/>
        </subject>
        <action id="SDMContinueScreeningAge">
          <title value="Selectively offer screening"/>
          <description value="The USPSTF recommends that clinicians selectively offer screening for colorectal cancer in adults aged 76 to 85 years."/>
          <documentation>
            <type value="citation"/>
            <label value="USPSTF (2021)"/>
            <display value="Screening for Colorectal Cancer: US Preventive Services Task Force Recommendation Statement"/>
            <citation value="US Preventive Services Task Force. Screening for Colorectal Cancer: US Preventive Services Task Force Recommendation Statement. JAMA. Published online May 18, 2021."/>
            <url value="https://www.uspreventiveservicestaskforce.org/uspstf/recommendation/colorectal-cancer-screening"/>
          </documentation>
          <resource>
            <reference value="CommunicationRequest/156"/>
          </resource>
        </action>
      </RequestGroup>
    </resource>
  </entry>
  <entry>
    <fullUrl value="http://cancerscreeningcds.github.io/crcsm-cds/CommunicationRequest/156"/>
    <resource>
      <CommunicationRequest>
        <id value="156"/>
        <text>
          <status value="generated"/><div xmlns="http://www.w3.org/1999/xhtml"><a name="CommunicationRequest_156"> </a><p class="res-header-id"><b>Generated Narrative: CommunicationRequest 156</b></p><a name="156"> </a><a name="hc156"> </a><a name="156-en-US"> </a><p><b>basedOn</b>: <a href="ActivityDefinition-CommunicateSDMContinueScreening.html">Communicate Shared Decision Making to Continue Screening</a></p><p><b>status</b>: option</p><p><b>subject</b>: <a href="Patient/f6453896-98e5-4bca-beac-212f208a4e17">Joanne Smith</a></p><h3>Payloads</h3><table class="grid"><tr><td style="display: none">-</td><td><b>Content[x]</b></td></tr><tr><td style="display: none">*</td><td>Shared decision making to continue screening</td></tr></table><p><b>reasonCode</b>: <span title="Codes:{http://cancerscreeningcds.github.io/crcsm-cds/CodeSystem/plan-definition-action-reason-code-system age76to86}">Age 76 to 86 years</span></p></div>
        </text>
        <basedOn>
          <reference value="http://cancerscreeningcds.github.io/crcsm-cds/ActivityDefinition/CommunicateSDMContinueScreening"/>
        </basedOn>
        <status value="option"/>
        <subject>
          <reference value="Patient/f6453896-98e5-4bca-beac-212f208a4e17"/>
          <display value="Joanne Smith"/>
        </subject>
        <payload>
          <contentString value="Shared decision making to continue screening"/>
        </payload>
        <reasonCode>
          <coding>
            <system value="http://cancerscreeningcds.github.io/crcsm-cds/CodeSystem/plan-definition-action-reason-code-system"/>
            <code value="age76to86"/>
            <display value="Age 76 to 86 years"/>
          </coding>
        </reasonCode>
      </CommunicationRequest>
    </resource>
  </entry>
</Bundle>