{
  "resourceType" : "Bundle",
  "id" : "ScreeningEligible_eve-HxTotalColectomy_no_eve-ActiveCRC_no_eve-Symptomatic_no_act-ScreeningEligible",
  "type" : "collection",
  "entry" : [{
    "fullUrl" : "http://cancerscreeningcds.github.io/crcsm-cds/CarePlan/214",
    "resource" : {
      "resourceType" : "CarePlan",
      "id" : "214",
      "text" : {
        "status" : "generated",
        "div" : "<div xmlns=\"http://www.w3.org/1999/xhtml\"><a name=\"CarePlan_214\"> </a><p class=\"res-header-id\"><b>Generated Narrative: CarePlan 214</b></p><a name=\"214\"> </a><a name=\"hc214\"> </a><a name=\"214-en-US\"> </a><p><b>instantiatesCanonical</b>: <a href=\"PlanDefinition-flow-ScreeningEligible.html\">Screening Eligible</a></p><p><b>status</b>: Draft</p><p><b>intent</b>: Proposal</p><p><b>subject</b>: <a href=\"Bundle-eve-HxTotalColectomy_no_eve-ActiveCRC_no_eve-Symptomatic_no_act-ScreeningEligible.html#Patient_eb910629-cd1d-46f7-8305-5e3bb971e9df\">Joanne Smith</a></p><p><b>created</b>: 2024-12-10 00:00:00+0000</p><h3>Activities</h3><table class=\"grid\"><tr><td style=\"display: none\">-</td><td><b>Reference</b></td></tr><tr><td style=\"display: none\">*</td><td><a href=\"Bundle-ScreeningEligible_eve-HxTotalColectomy_no_eve-ActiveCRC_no_eve-Symptomatic_no_act-ScreeningEligible.html#RequestGroup_215\">Bundle: type = collection</a></td></tr></table></div>"
      },
      "instantiatesCanonical" : ["http://cancerscreeningcds.github.io/crcsm-cds/PlanDefinition/flow-ScreeningEligible"],
      "status" : "draft",
      "intent" : "proposal",
      "subject" : {
        "reference" : "Patient/eb910629-cd1d-46f7-8305-5e3bb971e9df",
        "display" : "Joanne Smith"
      },
      "created" : "2024-12-10T00:00:00.0Z",
      "activity" : [{
        "reference" : {
          "reference" : "RequestGroup/215"
        }
      }]
    }
  },
  {
    "fullUrl" : "http://cancerscreeningcds.github.io/crcsm-cds/RequestGroup/215",
    "resource" : {
      "resourceType" : "RequestGroup",
      "id" : "215",
      "text" : {
        "status" : "generated",
        "div" : "<div xmlns=\"http://www.w3.org/1999/xhtml\"><a name=\"RequestGroup_215\"> </a><p class=\"res-header-id\"><b>Generated Narrative: RequestGroup 215</b></p><a name=\"215\"> </a><a name=\"hc215\"> </a><a name=\"215-en-US\"> </a><p><b>instantiatesCanonical</b>: <a href=\"PlanDefinition-flow-ScreeningEligible.html\">Screening Eligible</a></p><p><b>status</b>: Draft</p><p><b>intent</b>: Proposal</p><p><b>subject</b>: <a href=\"Bundle-eve-HxTotalColectomy_no_eve-ActiveCRC_no_eve-Symptomatic_no_act-ScreeningEligible.html#Patient_eb910629-cd1d-46f7-8305-5e3bb971e9df\">Joanne Smith</a></p><blockquote><p><b>action</b></p><blockquote><p><b>id</b></p>ScreeningEligible</blockquote><p><b>title</b>: Screening Eligible</p><p><b>description</b>: Patient is eligible for screening</p><p><b>code</b>: <span title=\"Codes:{http://cancerscreeningcds.github.io/crcsm-cds/CodeSystem/plan-definition-action-code-system eligible}\">Eligible for screening</span></p><h3>Documentations</h3><table class=\"grid\"><tr><td style=\"display: none\">-</td><td><b>Type</b></td><td><b>Label</b></td><td><b>Display</b></td><td><b>Citation</b></td><td><b>Url</b></td></tr><tr><td style=\"display: none\">*</td><td>Citation</td><td>USPSTF (2021)</td><td>Screening for Colorectal Cancer: US Preventive Services Task Force Recommendation Statement</td><td><div><p>US Preventive Services Task Force. Screening for Colorectal Cancer: US Preventive Services Task Force Recommendation Statement. JAMA. Published online May 18, 2021.</p>\n</div></td><td><a href=\"https://www.uspreventiveservicestaskforce.org/uspstf/recommendation/colorectal-cancer-screening\">https://www.uspreventiveservicestaskforce.org/uspstf/recommendation/colorectal-cancer-screening</a></td></tr></table><p><b>resource</b>: <a href=\"Bundle-ScreeningEligible_eve-HxTotalColectomy_no_eve-ActiveCRC_no_eve-Symptomatic_no_act-ScreeningEligible.html#CommunicationRequest_216\">Bundle: type = collection</a></p></blockquote></div>"
      },
      "instantiatesCanonical" : ["http://cancerscreeningcds.github.io/crcsm-cds/PlanDefinition/flow-ScreeningEligible"],
      "status" : "draft",
      "intent" : "proposal",
      "subject" : {
        "reference" : "Patient/eb910629-cd1d-46f7-8305-5e3bb971e9df",
        "display" : "Joanne Smith"
      },
      "action" : [{
        "id" : "ScreeningEligible",
        "title" : "Screening Eligible",
        "description" : "Patient is eligible for screening",
        "code" : [{
          "coding" : [{
            "system" : "http://cancerscreeningcds.github.io/crcsm-cds/CodeSystem/plan-definition-action-code-system",
            "code" : "eligible",
            "display" : "Eligible for screening"
          }]
        }],
        "documentation" : [{
          "type" : "citation",
          "label" : "USPSTF (2021)",
          "display" : "Screening for Colorectal Cancer: US Preventive Services Task Force Recommendation Statement",
          "citation" : "US Preventive Services Task Force. Screening for Colorectal Cancer: US Preventive Services Task Force Recommendation Statement. JAMA. Published online May 18, 2021.",
          "url" : "https://www.uspreventiveservicestaskforce.org/uspstf/recommendation/colorectal-cancer-screening"
        }],
        "resource" : {
          "reference" : "CommunicationRequest/216"
        }
      }]
    }
  },
  {
    "fullUrl" : "http://cancerscreeningcds.github.io/crcsm-cds/CommunicationRequest/216",
    "resource" : {
      "resourceType" : "CommunicationRequest",
      "id" : "216",
      "text" : {
        "status" : "generated",
        "div" : "<div xmlns=\"http://www.w3.org/1999/xhtml\"><a name=\"CommunicationRequest_216\"> </a><p class=\"res-header-id\"><b>Generated Narrative: CommunicationRequest 216</b></p><a name=\"216\"> </a><a name=\"hc216\"> </a><a name=\"216-en-US\"> </a><p><b>basedOn</b>: <a href=\"ActivityDefinition-CommunicateEligible.html\">Communicate Eligible</a></p><p><b>status</b>: option</p><p><b>subject</b>: <a href=\"Bundle-eve-HxTotalColectomy_no_eve-ActiveCRC_no_eve-Symptomatic_no_act-ScreeningEligible.html#Patient_eb910629-cd1d-46f7-8305-5e3bb971e9df\">Joanne Smith</a></p><h3>Payloads</h3><table class=\"grid\"><tr><td style=\"display: none\">-</td><td><b>Content[x]</b></td></tr><tr><td style=\"display: none\">*</td><td>Eligible for screening</td></tr></table></div>"
      },
      "basedOn" : [{
        "reference" : "http://cancerscreeningcds.github.io/crcsm-cds/ActivityDefinition/CommunicateEligible"
      }],
      "status" : "option",
      "subject" : {
        "reference" : "Patient/eb910629-cd1d-46f7-8305-5e3bb971e9df",
        "display" : "Joanne Smith"
      },
      "payload" : [{
        "contentString" : "Eligible for screening"
      }]
    }
  }]
}