<?xml version="1.0" encoding="UTF-8"?>

<Bundle xmlns="http://hl7.org/fhir">
  <id value="USPSTFAvgRisk_StellaParker"/>
  <type value="collection"/>
  <entry>
    <fullUrl value="http://cancerscreeningcds.github.io/crcsm-cds/CarePlan/236"/>
    <resource>
      <CarePlan>
        <id value="236"/>
        <text>
          <status value="generated"/><div xmlns="http://www.w3.org/1999/xhtml"><a name="CarePlan_236"> </a><p class="res-header-id"><b>Generated Narrative: CarePlan 236</b></p><a name="236"> </a><a name="hc236"> </a><a name="236-en-US"> </a><p><b>instantiatesCanonical</b>: <a href="PlanDefinition-flow-USPSTFAvgRisk.html">Average Risk</a></p><p><b>status</b>: Draft</p><p><b>intent</b>: Proposal</p><p><b>subject</b>: <a href="Bundle-StellaParker.html#Patient_StellaParker">Stella Parker</a></p><p><b>created</b>: 2024-12-10 00:00:00+0000</p><h3>Activities</h3><table class="grid"><tr><td style="display: none">-</td><td><b>Reference</b></td></tr><tr><td style="display: none">*</td><td><a href="Bundle-USPSTFAvgRisk_StellaParker.html#RequestGroup_237">Bundle: type = collection</a></td></tr></table></div>
        </text>
        <instantiatesCanonical value="http://cancerscreeningcds.github.io/crcsm-cds/PlanDefinition/flow-USPSTFAvgRisk"/>
        <status value="draft"/>
        <intent value="proposal"/>
        <subject>
          <reference value="Patient/StellaParker"/>
          <display value="Stella Parker"/>
        </subject>
        <created value="2024-12-10T00:00:00.0Z"/>
        <activity>
          <reference>
            <reference value="RequestGroup/237"/>
          </reference>
        </activity>
      </CarePlan>
    </resource>
  </entry>
  <entry>
    <fullUrl value="http://cancerscreeningcds.github.io/crcsm-cds/RequestGroup/237"/>
    <resource>
      <RequestGroup>
        <id value="237"/>
        <text>
          <status value="generated"/><div xmlns="http://www.w3.org/1999/xhtml"><a name="RequestGroup_237"> </a><p class="res-header-id"><b>Generated Narrative: RequestGroup 237</b></p><a name="237"> </a><a name="hc237"> </a><a name="237-en-US"> </a><p><b>instantiatesCanonical</b>: <a href="PlanDefinition-flow-USPSTFAvgRisk.html">Average Risk</a></p><p><b>status</b>: Draft</p><p><b>intent</b>: Proposal</p><p><b>subject</b>: <a href="Bundle-StellaParker.html#Patient_StellaParker">Stella Parker</a></p><blockquote><p><b>action</b></p><blockquote><p><b>id</b></p>ContinueRoutineScreening</blockquote><p><b>title</b>: Continue routine screening</p><p><b>description</b>: Continue routine screening.

Screening strategies and intervals recommended for average risk patients include:
* Colonoscopy every 10 years
* High-sensitivity gFOBT or FIT every year
* sDNA-FIT every 1 to 3 years
* CT colonography every 5 years
* Flexible sigmoidoscopy every 5 years
* Flexible sigmoidoscopy every 10 years + FIT every year</p><p><b>code</b>: <span title="Codes:{http://snomed.info/sct 268548003}">Screening for malignant neoplasm of large intestine (procedure)</span></p><h3>Documentations</h3><table class="grid"><tr><td style="display: none">-</td><td><b>Type</b></td><td><b>Label</b></td><td><b>Display</b></td><td><b>Citation</b></td><td><b>Url</b></td></tr><tr><td style="display: none">*</td><td>Citation</td><td>USPSTF (2021)</td><td>Screening for Colorectal Cancer: US Preventive Services Task Force Recommendation Statement</td><td><div><p>US Preventive Services Task Force. Screening for Colorectal Cancer: US Preventive Services Task Force Recommendation Statement. JAMA. Published online May 18, 2021.</p>
</div></td><td><a href="https://www.uspreventiveservicestaskforce.org/uspstf/recommendation/colorectal-cancer-screening">https://www.uspreventiveservicestaskforce.org/uspstf/recommendation/colorectal-cancer-screening</a></td></tr></table><p><b>timing</b>: Events: 2024-04-02 00:00:00+0000 , Once</p><p><b>resource</b>: <a href="Bundle-USPSTFAvgRisk_StellaParker.html#ServiceRequest_238">Bundle: type = collection</a></p></blockquote></div>
        </text>
        <instantiatesCanonical value="http://cancerscreeningcds.github.io/crcsm-cds/PlanDefinition/flow-USPSTFAvgRisk"/>
        <status value="draft"/>
        <intent value="proposal"/>
        <subject>
          <reference value="Patient/StellaParker"/>
          <display value="Stella Parker"/>
        </subject>
        <action id="ContinueRoutineScreening">
          <title value="Continue routine screening"/>
          <description value="Continue routine screening.&#xA;&#xA;Screening strategies and intervals recommended for average risk patients include:&#xA;* Colonoscopy every 10 years&#xA;* High-sensitivity gFOBT or FIT every year&#xA;* sDNA-FIT every 1 to 3 years&#xA;* CT colonography every 5 years&#xA;* Flexible sigmoidoscopy every 5 years&#xA;* Flexible sigmoidoscopy every 10 years + FIT every year"/>
          <code>
            <coding>
              <system value="http://snomed.info/sct"/>
              <code value="268548003"/>
              <display value="Screening for malignant neoplasm of large intestine (procedure)"/>
            </coding>
          </code>
          <documentation>
            <type value="citation"/>
            <label value="USPSTF (2021)"/>
            <display value="Screening for Colorectal Cancer: US Preventive Services Task Force Recommendation Statement"/>
            <citation value="US Preventive Services Task Force. Screening for Colorectal Cancer: US Preventive Services Task Force Recommendation Statement. JAMA. Published online May 18, 2021."/>
            <url value="https://www.uspreventiveservicestaskforce.org/uspstf/recommendation/colorectal-cancer-screening"/>
          </documentation>
          <timingTiming>
            <event value="2024-04-02T00:00:00.000+00:00"/>
            <repeat>
              <boundsPeriod>
                <start value="2014-03-09"/>
              </boundsPeriod>
            </repeat>
          </timingTiming>
          <resource>
            <reference value="ServiceRequest/238"/>
          </resource>
        </action>
      </RequestGroup>
    </resource>
  </entry>
  <entry>
    <fullUrl value="http://cancerscreeningcds.github.io/crcsm-cds/ServiceRequest/238"/>
    <resource>
      <ServiceRequest>
        <id value="238"/>
        <text>
          <status value="generated"/><div xmlns="http://www.w3.org/1999/xhtml"><a name="ServiceRequest_238"> </a><p class="res-header-id"><b>Generated Narrative: ServiceRequest 238</b></p><a name="238"> </a><a name="hc238"> </a><a name="238-en-US"> </a><p><b>basedOn</b>: <a href="ActivityDefinition-ColorectalCancerScreeningServiceRequest.html">Colorectal Cancer Screening Service Request</a></p><p><b>status</b>: option</p><p><b>intent</b>: Proposal</p><p><b>code</b>: <span title="Codes:{http://snomed.info/sct 268548003}">Screening for malignant neoplasm of large intestine (procedure)</span></p><p><b>subject</b>: <a href="Bundle-StellaParker.html#Patient_StellaParker">Stella Parker</a></p><p><b>occurrence</b>: 2024-04-02 00:00:00+0000</p><p><b>reasonCode</b>: <span title="Codes:{http://cancerscreeningcds.github.io/crcsm-cds/CodeSystem/plan-definition-action-reason-code-system USPSTFaveragerisk}">USPSTF average risk</span></p></div>
        </text>
        <basedOn>
          <reference value="http://cancerscreeningcds.github.io/crcsm-cds/ActivityDefinition/ColorectalCancerScreeningServiceRequest"/>
        </basedOn>
        <status value="option"/>
        <intent value="proposal"/>
        <code>
          <coding>
            <system value="http://snomed.info/sct"/>
            <code value="268548003"/>
            <display value="Screening for malignant neoplasm of large intestine (procedure)"/>
          </coding>
        </code>
        <subject>
          <reference value="Patient/StellaParker"/>
          <display value="Stella Parker"/>
        </subject>
        <occurrenceDateTime value="2024-04-02T00:00:00.000+00:00"/>
        <reasonCode>
          <coding>
            <system value="http://cancerscreeningcds.github.io/crcsm-cds/CodeSystem/plan-definition-action-reason-code-system"/>
            <code value="USPSTFaveragerisk"/>
            <display value="USPSTF average risk"/>
          </coding>
        </reasonCode>
      </ServiceRequest>
    </resource>
  </entry>
</Bundle>