<?xml version="1.0" encoding="UTF-8"?>

<Bundle xmlns="http://hl7.org/fhir">
  <id value="DecisionToScreen_eve-Age86AndOlder_no_eve-AgeOver76_no_eve-LifeExp10_no_eve-riskFactors_yes_act-incRiskEligible"/>
  <type value="collection"/>
  <entry>
    <fullUrl value="http://cancerscreeningcds.github.io/crcsm-cds/CarePlan/144"/>
    <resource>
      <CarePlan>
        <id value="144"/>
        <text>
          <status value="generated"/><div xmlns="http://www.w3.org/1999/xhtml"><a name="CarePlan_144"> </a><p class="res-header-id"><b>Generated Narrative: CarePlan 144</b></p><a name="144"> </a><a name="hc144"> </a><a name="144-en-US"> </a><p><b>instantiatesCanonical</b>: <a href="PlanDefinition-flow-DecisionToScreen.html">Decision to Screen</a></p><p><b>status</b>: Draft</p><p><b>intent</b>: Proposal</p><p><b>subject</b>: <a href="Patient/b07b0170-b3ba-4359-a937-f25bba4c68fc">Joanne Smith</a></p><p><b>created</b>: 2024-12-10 00:00:00+0000</p><h3>Activities</h3><table class="grid"><tr><td style="display: none">-</td><td><b>Reference</b></td></tr><tr><td style="display: none">*</td><td><a href="Bundle-DecisionToScreen_eve-Age86AndOlder_no_eve-AgeOver76_no_eve-LifeExp10_no_eve-riskFactors_yes_act-incRiskEligible.html#RequestGroup_145">Bundle: type = collection</a></td></tr></table></div>
        </text>
        <instantiatesCanonical value="http://cancerscreeningcds.github.io/crcsm-cds/PlanDefinition/flow-DecisionToScreen"/>
        <status value="draft"/>
        <intent value="proposal"/>
        <subject>
          <reference value="Patient/b07b0170-b3ba-4359-a937-f25bba4c68fc"/>
          <display value="Joanne Smith"/>
        </subject>
        <created value="2024-12-10T00:00:00.0Z"/>
        <activity>
          <reference>
            <reference value="RequestGroup/145"/>
          </reference>
        </activity>
      </CarePlan>
    </resource>
  </entry>
  <entry>
    <fullUrl value="http://cancerscreeningcds.github.io/crcsm-cds/RequestGroup/145"/>
    <resource>
      <RequestGroup>
        <id value="145"/>
        <text>
          <status value="generated"/><div xmlns="http://www.w3.org/1999/xhtml"><a name="RequestGroup_145"> </a><p class="res-header-id"><b>Generated Narrative: RequestGroup 145</b></p><a name="145"> </a><a name="hc145"> </a><a name="145-en-US"> </a><p><b>instantiatesCanonical</b>: <a href="PlanDefinition-flow-DecisionToScreen.html">Decision to Screen</a></p><p><b>status</b>: Draft</p><p><b>intent</b>: Proposal</p><p><b>subject</b>: <a href="Patient/b07b0170-b3ba-4359-a937-f25bba4c68fc">Joanne Smith</a></p><blockquote><p><b>action</b></p><blockquote><p><b>id</b></p>HereditarySyndromesSurveillance</blockquote><p><b>title</b>: Colorectal cancer surveillance per specialist recommendations</p><p><b>description</b>: Refer to GI specialist for colorectal cancer (and possibly additional cancers) surveillance recommendations.

Patients with a hereditary cancer syndrome require specialized management and colonoscopy surveillance for colorectal cancer (as well as additional surveillance for other cancers). Recommendations on when to start surveillance and surveillance intervals vary according to the syndrome.</p><h3>Documentations</h3><table class="grid"><tr><td style="display: none">-</td><td><b>Type</b></td><td><b>Label</b></td><td><b>Display</b></td><td><b>Citation</b></td></tr><tr><td style="display: none">*</td><td>Citation</td><td>ACG Hereditary Syndromes (2015)</td><td>ACG Clinical Guideline: Genetic Testing and Management of Hereditary Gastrointestinal Cancer Syndromes</td><td><div><p>Syngal, S., et al. (2015). ACG Clinical Guideline: Genetic Testing and Management of Hereditary Gastrointestinal Cancer Syndromes. American Journal of Gastroenterology 110(2):p 223-262. https://doi.org/10.1038/ajg.2014.435</p>
</div></td></tr></table><p><b>resource</b>: <a href="Bundle-DecisionToScreen_eve-Age86AndOlder_no_eve-AgeOver76_no_eve-LifeExp10_no_eve-riskFactors_yes_act-incRiskEligible.html#ServiceRequest_146">Bundle: type = collection</a></p></blockquote></div>
        </text>
        <instantiatesCanonical value="http://cancerscreeningcds.github.io/crcsm-cds/PlanDefinition/flow-DecisionToScreen"/>
        <status value="draft"/>
        <intent value="proposal"/>
        <subject>
          <reference value="Patient/b07b0170-b3ba-4359-a937-f25bba4c68fc"/>
          <display value="Joanne Smith"/>
        </subject>
        <action id="HereditarySyndromesSurveillance">
          <title value="Colorectal cancer surveillance per specialist recommendations"/>
          <description value="Refer to GI specialist for colorectal cancer (and possibly additional cancers) surveillance recommendations.&#xA;&#xA;Patients with a hereditary cancer syndrome require specialized management and colonoscopy surveillance for colorectal cancer (as well as additional surveillance for other cancers). Recommendations on when to start surveillance and surveillance intervals vary according to the syndrome."/>
          <documentation>
            <type value="citation"/>
            <label value="ACG Hereditary Syndromes (2015)"/>
            <display value="ACG Clinical Guideline: Genetic Testing and Management of Hereditary Gastrointestinal Cancer Syndromes"/>
            <citation value="Syngal, S., et al. (2015). ACG Clinical Guideline: Genetic Testing and Management of Hereditary Gastrointestinal Cancer Syndromes. American Journal of Gastroenterology 110(2):p 223-262. https://doi.org/10.1038/ajg.2014.435"/>
          </documentation>
          <resource>
            <reference value="ServiceRequest/146"/>
          </resource>
        </action>
      </RequestGroup>
    </resource>
  </entry>
  <entry>
    <fullUrl value="http://cancerscreeningcds.github.io/crcsm-cds/ServiceRequest/146"/>
    <resource>
      <ServiceRequest>
        <id value="146"/>
        <text>
          <status value="generated"/><div xmlns="http://www.w3.org/1999/xhtml"><a name="ServiceRequest_146"> </a><p class="res-header-id"><b>Generated Narrative: ServiceRequest 146</b></p><a name="146"> </a><a name="hc146"> </a><a name="146-en-US"> </a><p><b>basedOn</b>: <a href="ActivityDefinition-ColorectalCancerScreeningServiceRequest.html">Colorectal Cancer Screening Service Request</a></p><p><b>status</b>: option</p><p><b>intent</b>: Proposal</p><p><b>code</b>: <span title="Codes:{http://snomed.info/sct 452071000124102}">Surveillance for colorectal cancer (regime/therapy)</span></p><p><b>subject</b>: <a href="Patient/b07b0170-b3ba-4359-a937-f25bba4c68fc">Joanne Smith</a></p><p><b>reasonCode</b>: <span title="Codes:{http://snomed.info/sct 699346009}">Hereditary cancer-predisposing syndrome (disorder)</span></p></div>
        </text>
        <basedOn>
          <reference value="http://cancerscreeningcds.github.io/crcsm-cds/ActivityDefinition/ColorectalCancerScreeningServiceRequest"/>
        </basedOn>
        <status value="option"/>
        <intent value="proposal"/>
        <code>
          <coding>
            <system value="http://snomed.info/sct"/>
            <code value="452071000124102"/>
            <display value="Surveillance for colorectal cancer (regime/therapy)"/>
          </coding>
        </code>
        <subject>
          <reference value="Patient/b07b0170-b3ba-4359-a937-f25bba4c68fc"/>
          <display value="Joanne Smith"/>
        </subject>
        <reasonCode>
          <coding>
            <system value="http://snomed.info/sct"/>
            <code value="699346009"/>
            <display value="Hereditary cancer-predisposing syndrome (disorder)"/>
          </coding>
        </reasonCode>
      </ServiceRequest>
    </resource>
  </entry>
</Bundle>