{
  "resourceType" : "Bundle",
  "id" : "HighLevel_FranColette",
  "type" : "collection",
  "entry" : [{
    "fullUrl" : "http://cancerscreeningcds.github.io/crcsm-cds/CarePlan/22",
    "resource" : {
      "resourceType" : "CarePlan",
      "id" : "22",
      "text" : {
        "status" : "generated",
        "div" : "<div xmlns=\"http://www.w3.org/1999/xhtml\"><a name=\"CarePlan_22\"> </a><p class=\"res-header-id\"><b>Generated Narrative: CarePlan 22</b></p><a name=\"22\"> </a><a name=\"hc22\"> </a><a name=\"22-en-US\"> </a><p><b>instantiatesCanonical</b>: <a href=\"PlanDefinition-HighLevel.html\">High Level Flow</a></p><p><b>status</b>: Draft</p><p><b>intent</b>: Proposal</p><p><b>subject</b>: <a href=\"Bundle-FranColette.html#Patient_FranColette\">Fran Collete</a></p><p><b>created</b>: 2024-12-10 00:00:00+0000</p><h3>Activities</h3><table class=\"grid\"><tr><td style=\"display: none\">-</td><td><b>Reference</b></td></tr><tr><td style=\"display: none\">*</td><td><a href=\"Bundle-HighLevel_FranColette.html#RequestGroup_23\">Bundle: type = collection</a></td></tr></table></div>"
      },
      "instantiatesCanonical" : ["http://cancerscreeningcds.github.io/crcsm-cds/PlanDefinition/HighLevel"],
      "status" : "draft",
      "intent" : "proposal",
      "subject" : {
        "reference" : "Patient/FranColette",
        "display" : "Fran Collete"
      },
      "created" : "2024-12-10T00:00:00.0Z",
      "activity" : [{
        "reference" : {
          "reference" : "RequestGroup/23"
        }
      }]
    }
  },
  {
    "fullUrl" : "http://cancerscreeningcds.github.io/crcsm-cds/RequestGroup/23",
    "resource" : {
      "resourceType" : "RequestGroup",
      "id" : "23",
      "text" : {
        "status" : "generated",
        "div" : "<div xmlns=\"http://www.w3.org/1999/xhtml\"><a name=\"RequestGroup_23\"> </a><p class=\"res-header-id\"><b>Generated Narrative: RequestGroup 23</b></p><a name=\"23\"> </a><a name=\"hc23\"> </a><a name=\"23-en-US\"> </a><p><b>instantiatesCanonical</b>: <a href=\"PlanDefinition-HighLevel.html\">High Level Flow</a></p><p><b>status</b>: Draft</p><p><b>intent</b>: Proposal</p><p><b>subject</b>: <a href=\"Bundle-FranColette.html#Patient_FranColette\">Fran Collete</a></p><blockquote><p><b>action</b></p><blockquote><p><b>id</b></p>24</blockquote><p><b>title</b>: Followup Screening Result</p><p><b>description</b>: Determines next steps, if any, based on result of screening tests. This may be triggered by a diagnostic report being received by the system or a test result being documented in a structured manner.</p><p><b>resource</b>: <a href=\"Bundle-HighLevel_FranColette.html#CarePlan_26\">Bundle: type = collection</a></p></blockquote></div>"
      },
      "instantiatesCanonical" : ["http://cancerscreeningcds.github.io/crcsm-cds/PlanDefinition/HighLevel"],
      "status" : "draft",
      "intent" : "proposal",
      "subject" : {
        "reference" : "Patient/FranColette",
        "display" : "Fran Collete"
      },
      "action" : [{
        "id" : "24",
        "title" : "Followup Screening Result",
        "description" : "Determines next steps, if any, based on result of screening tests. This may be triggered by a diagnostic report being received by the system or a test result being documented in a structured manner.",
        "resource" : {
          "reference" : "CarePlan/26"
        }
      }]
    }
  },
  {
    "fullUrl" : "http://cancerscreeningcds.github.io/crcsm-cds/CarePlan/26",
    "resource" : {
      "resourceType" : "CarePlan",
      "id" : "26",
      "text" : {
        "status" : "generated",
        "div" : "<div xmlns=\"http://www.w3.org/1999/xhtml\"><a name=\"CarePlan_26\"> </a><p class=\"res-header-id\"><b>Generated Narrative: CarePlan 26</b></p><a name=\"26\"> </a><a name=\"hc26\"> </a><a name=\"26-en-US\"> </a><p><b>instantiatesCanonical</b>: <a href=\"PlanDefinition-flow-FollowUp.html\">Follow Up</a></p><p><b>status</b>: option</p><p><b>intent</b>: Proposal</p><p><b>subject</b>: <a href=\"Bundle-FranColette.html#Patient_FranColette\">Fran Collete</a></p><p><b>created</b>: 2024-12-10 00:00:00+0000</p><h3>Activities</h3><table class=\"grid\"><tr><td style=\"display: none\">-</td><td><b>Reference</b></td></tr><tr><td style=\"display: none\">*</td><td><a href=\"Bundle-HighLevel_FranColette.html#RequestGroup_27\">Bundle: type = collection</a></td></tr></table></div>"
      },
      "instantiatesCanonical" : ["http://cancerscreeningcds.github.io/crcsm-cds/PlanDefinition/flow-FollowUp"],
      "status" : "option",
      "intent" : "proposal",
      "subject" : {
        "reference" : "Patient/FranColette",
        "display" : "Fran Collete"
      },
      "created" : "2024-12-10T00:00:00.0Z",
      "activity" : [{
        "reference" : {
          "reference" : "RequestGroup/27"
        }
      }]
    }
  },
  {
    "fullUrl" : "http://cancerscreeningcds.github.io/crcsm-cds/RequestGroup/27",
    "resource" : {
      "resourceType" : "RequestGroup",
      "id" : "27",
      "text" : {
        "status" : "extensions",
        "div" : "<div xmlns=\"http://www.w3.org/1999/xhtml\"><a name=\"RequestGroup_27\"> </a><p class=\"res-header-id\"><b>Generated Narrative: RequestGroup 27</b></p><a name=\"27\"> </a><a name=\"hc27\"> </a><a name=\"27-en-US\"> </a><p><b>instantiatesCanonical</b>: <a href=\"PlanDefinition-flow-FollowUp.html\">Follow Up</a></p><p><b>status</b>: Draft</p><p><b>intent</b>: Proposal</p><p><b>subject</b>: <a href=\"Bundle-FranColette.html#Patient_FranColette\">Fran Collete</a></p><blockquote><p><b>action</b></p><blockquote><p><b>id</b></p>FollowupStoolAbnormalResult</blockquote><p><b>io/crcsm-cds/StructureDefinition/csm-recommendation-flag</b>: <span title=\"Codes:{http://cancerscreeningcds.github.io/crcsm-cds/CodeSystem/recommendation-flag-code-system due}\">Due</span></p><p><b>title</b>: Order follow-up colonoscopy due to abnormal stool result</p><p><b>description</b>: Order follow-up colonoscopy.\n\nPositive stool-based tests or abnormal findings require follow-up with colonoscopy for the screening benefits to be achieved.</p><p><b>code</b>: <span title=\"Codes:{http://loinc.org 18746-8}\">Colonoscopy study</span></p><h3>Documentations</h3><table class=\"grid\"><tr><td style=\"display: none\">-</td><td><b>Type</b></td><td><b>Label</b></td><td><b>Display</b></td><td><b>Citation</b></td><td><b>Url</b></td></tr><tr><td style=\"display: none\">*</td><td>Citation</td><td>USPSTF (2021)</td><td>Screening for Colorectal Cancer: US Preventive Services Task Force Recommendation Statement</td><td><div><p>US Preventive Services Task Force. Screening for Colorectal Cancer: US Preventive Services Task Force Recommendation Statement. JAMA. Published online May 18, 2021.</p>\n</div></td><td><a href=\"https://www.uspreventiveservicestaskforce.org/uspstf/recommendation/colorectal-cancer-screening\">https://www.uspreventiveservicestaskforce.org/uspstf/recommendation/colorectal-cancer-screening</a></td></tr></table><p><b>timing</b>: Events: 2024-11-15 00:00:00+0000 </p><p><b>resource</b>: <a href=\"Bundle-HighLevel_FranColette.html#ServiceRequest_28\">Bundle: type = collection</a></p></blockquote></div>"
      },
      "instantiatesCanonical" : ["http://cancerscreeningcds.github.io/crcsm-cds/PlanDefinition/flow-FollowUp"],
      "status" : "draft",
      "intent" : "proposal",
      "subject" : {
        "reference" : "Patient/FranColette",
        "display" : "Fran Collete"
      },
      "action" : [{
        "id" : "FollowupStoolAbnormalResult",
        "extension" : [{
          "url" : "http://cancerscreeningcds.github.io/crcsm-cds/StructureDefinition/csm-recommendation-flag",
          "valueCodeableConcept" : {
            "coding" : [{
              "system" : "http://cancerscreeningcds.github.io/crcsm-cds/CodeSystem/recommendation-flag-code-system",
              "code" : "due",
              "display" : "Due"
            }]
          }
        }],
        "title" : "Order follow-up colonoscopy due to abnormal stool result",
        "description" : "Order follow-up colonoscopy.\n\nPositive stool-based tests or abnormal findings require follow-up with colonoscopy for the screening benefits to be achieved.",
        "code" : [{
          "coding" : [{
            "system" : "http://loinc.org",
            "code" : "18746-8",
            "display" : "Colonoscopy study"
          }]
        }],
        "documentation" : [{
          "type" : "citation",
          "label" : "USPSTF (2021)",
          "display" : "Screening for Colorectal Cancer: US Preventive Services Task Force Recommendation Statement",
          "citation" : "US Preventive Services Task Force. Screening for Colorectal Cancer: US Preventive Services Task Force Recommendation Statement. JAMA. Published online May 18, 2021.",
          "url" : "https://www.uspreventiveservicestaskforce.org/uspstf/recommendation/colorectal-cancer-screening"
        }],
        "timingTiming" : {
          "event" : ["2024-11-15T00:00:00.000+00:00"]
        },
        "resource" : {
          "reference" : "ServiceRequest/28"
        }
      }]
    }
  },
  {
    "fullUrl" : "http://cancerscreeningcds.github.io/crcsm-cds/ServiceRequest/28",
    "resource" : {
      "resourceType" : "ServiceRequest",
      "id" : "28",
      "text" : {
        "status" : "generated",
        "div" : "<div xmlns=\"http://www.w3.org/1999/xhtml\"><a name=\"ServiceRequest_28\"> </a><p class=\"res-header-id\"><b>Generated Narrative: ServiceRequest 28</b></p><a name=\"28\"> </a><a name=\"hc28\"> </a><a name=\"28-en-US\"> </a><p><b>basedOn</b>: <a href=\"ActivityDefinition-ColorectalCancerScreeningServiceRequest.html\">Colorectal Cancer Screening Service Request</a></p><p><b>status</b>: option</p><p><b>intent</b>: Proposal</p><p><b>code</b>: <span title=\"Codes:{http://loinc.org 18746-8}\">Colonoscopy study</span></p><p><b>subject</b>: <a href=\"Bundle-FranColette.html#Patient_FranColette\">Fran Collete</a></p><p><b>occurrence</b>: 2024-11-15 00:00:00+0000</p><p><b>reasonCode</b>: <span title=\"Codes:{http://cancerscreeningcds.github.io/crcsm-cds/CodeSystem/plan-definition-action-reason-code-system positiveabnormalscreening}\">Positive or abnormal non-colonoscopy screening</span></p></div>"
      },
      "basedOn" : [{
        "reference" : "http://cancerscreeningcds.github.io/crcsm-cds/ActivityDefinition/ColorectalCancerScreeningServiceRequest"
      }],
      "status" : "option",
      "intent" : "proposal",
      "code" : {
        "coding" : [{
          "system" : "http://loinc.org",
          "code" : "18746-8",
          "display" : "Colonoscopy study"
        }]
      },
      "subject" : {
        "reference" : "Patient/FranColette",
        "display" : "Fran Collete"
      },
      "occurrenceDateTime" : "2024-11-15T00:00:00.000+00:00",
      "reasonCode" : [{
        "coding" : [{
          "system" : "http://cancerscreeningcds.github.io/crcsm-cds/CodeSystem/plan-definition-action-reason-code-system",
          "code" : "positiveabnormalscreening",
          "display" : "Positive or abnormal non-colonoscopy screening"
        }]
      }]
    }
  }]
}