<?xml version="1.0" encoding="UTF-8"?>

<Bundle xmlns="http://hl7.org/fhir">
  <id value="HighLevel_OllieOncken"/>
  <type value="collection"/>
  <entry>
    <fullUrl value="http://cancerscreeningcds.github.io/crcsm-cds/CarePlan/51"/>
    <resource>
      <CarePlan>
        <id value="51"/>
        <text>
          <status value="generated"/><div xmlns="http://www.w3.org/1999/xhtml"><a name="CarePlan_51"> </a><p class="res-header-id"><b>Generated Narrative: CarePlan 51</b></p><a name="51"> </a><a name="hc51"> </a><a name="51-en-US"> </a><p><b>instantiatesCanonical</b>: <a href="PlanDefinition-HighLevel.html">High Level Flow</a></p><p><b>status</b>: Draft</p><p><b>intent</b>: Proposal</p><p><b>subject</b>: <a href="Bundle-OllieOncken.html#Patient_OllieOncken">Ollie Oncken</a></p><p><b>created</b>: 2024-12-10 00:00:00+0000</p><h3>Activities</h3><table class="grid"><tr><td style="display: none">-</td><td><b>Reference</b></td></tr><tr><td style="display: none">*</td><td><a href="Bundle-HighLevel_OllieOncken.html#RequestGroup_52">Bundle: type = collection</a></td></tr></table></div>
        </text>
        <instantiatesCanonical value="http://cancerscreeningcds.github.io/crcsm-cds/PlanDefinition/HighLevel"/>
        <status value="draft"/>
        <intent value="proposal"/>
        <subject>
          <reference value="Patient/OllieOncken"/>
          <display value="Ollie Oncken"/>
        </subject>
        <created value="2024-12-10T00:00:00.0Z"/>
        <activity>
          <reference>
            <reference value="RequestGroup/52"/>
          </reference>
        </activity>
      </CarePlan>
    </resource>
  </entry>
  <entry>
    <fullUrl value="http://cancerscreeningcds.github.io/crcsm-cds/RequestGroup/52"/>
    <resource>
      <RequestGroup>
        <id value="52"/>
        <text>
          <status value="generated"/><div xmlns="http://www.w3.org/1999/xhtml"><a name="RequestGroup_52"> </a><p class="res-header-id"><b>Generated Narrative: RequestGroup 52</b></p><a name="52"> </a><a name="hc52"> </a><a name="52-en-US"> </a><p><b>instantiatesCanonical</b>: <a href="PlanDefinition-HighLevel.html">High Level Flow</a></p><p><b>status</b>: Draft</p><p><b>intent</b>: Proposal</p><p><b>subject</b>: <a href="Bundle-OllieOncken.html#Patient_OllieOncken">Ollie Oncken</a></p><blockquote><p><b>action</b></p><blockquote><p><b>id</b></p>53</blockquote><p><b>title</b>: Followup Screening Result</p><p><b>description</b>: Determines next steps, if any, based on result of screening tests. This may be triggered by a diagnostic report being received by the system or a test result being documented in a structured manner.</p><p><b>resource</b>: <a href="Bundle-HighLevel_OllieOncken.html#CarePlan_55">Bundle: type = collection</a></p></blockquote></div>
        </text>
        <instantiatesCanonical value="http://cancerscreeningcds.github.io/crcsm-cds/PlanDefinition/HighLevel"/>
        <status value="draft"/>
        <intent value="proposal"/>
        <subject>
          <reference value="Patient/OllieOncken"/>
          <display value="Ollie Oncken"/>
        </subject>
        <action id="53">
          <title value="Followup Screening Result"/>
          <description value="Determines next steps, if any, based on result of screening tests. This may be triggered by a diagnostic report being received by the system or a test result being documented in a structured manner."/>
          <resource>
            <reference value="CarePlan/55"/>
          </resource>
        </action>
      </RequestGroup>
    </resource>
  </entry>
  <entry>
    <fullUrl value="http://cancerscreeningcds.github.io/crcsm-cds/CarePlan/55"/>
    <resource>
      <CarePlan>
        <id value="55"/>
        <text>
          <status value="generated"/><div xmlns="http://www.w3.org/1999/xhtml"><a name="CarePlan_55"> </a><p class="res-header-id"><b>Generated Narrative: CarePlan 55</b></p><a name="55"> </a><a name="hc55"> </a><a name="55-en-US"> </a><p><b>instantiatesCanonical</b>: <a href="PlanDefinition-flow-FollowUp.html">Follow Up</a></p><p><b>status</b>: option</p><p><b>intent</b>: Proposal</p><p><b>subject</b>: <a href="Bundle-OllieOncken.html#Patient_OllieOncken">Ollie Oncken</a></p><p><b>created</b>: 2024-12-10 00:00:00+0000</p><h3>Activities</h3><table class="grid"><tr><td style="display: none">-</td><td><b>Reference</b></td></tr><tr><td style="display: none">*</td><td><a href="Bundle-HighLevel_OllieOncken.html#RequestGroup_56">Bundle: type = collection</a></td></tr></table></div>
        </text>
        <instantiatesCanonical value="http://cancerscreeningcds.github.io/crcsm-cds/PlanDefinition/flow-FollowUp"/>
        <status value="option"/>
        <intent value="proposal"/>
        <subject>
          <reference value="Patient/OllieOncken"/>
          <display value="Ollie Oncken"/>
        </subject>
        <created value="2024-12-10T00:00:00.0Z"/>
        <activity>
          <reference>
            <reference value="RequestGroup/56"/>
          </reference>
        </activity>
      </CarePlan>
    </resource>
  </entry>
  <entry>
    <fullUrl value="http://cancerscreeningcds.github.io/crcsm-cds/RequestGroup/56"/>
    <resource>
      <RequestGroup>
        <id value="56"/>
        <text>
          <status value="extensions"/><div xmlns="http://www.w3.org/1999/xhtml"><a name="RequestGroup_56"> </a><p class="res-header-id"><b>Generated Narrative: RequestGroup 56</b></p><a name="56"> </a><a name="hc56"> </a><a name="56-en-US"> </a><p><b>instantiatesCanonical</b>: <a href="PlanDefinition-flow-FollowUp.html">Follow Up</a></p><p><b>status</b>: Draft</p><p><b>intent</b>: Proposal</p><p><b>subject</b>: <a href="Bundle-OllieOncken.html#Patient_OllieOncken">Ollie Oncken</a></p><blockquote><p><b>action</b></p><blockquote><p><b>id</b></p>FollowupColonoscopyCRCResult</blockquote><p><b>io/crcsm-cds/StructureDefinition/csm-recommendation-flag</b>: <span title="Codes:{http://cancerscreeningcds.github.io/crcsm-cds/CodeSystem/recommendation-flag-code-system due}">Due</span></p><p><b>title</b>: Refer to Oncology</p><p><b>description</b>: Refer to Oncology for evaluation.</p><p><b>code</b>: <span title="Codes:{http://cancerscreeningcds.github.io/crcsm-cds/CodeSystem/plan-definition-action-code-system oncreferral}">Oncologic referral</span></p><p><b>timing</b>: Events: 2024-12-02 </p><p><b>resource</b>: <a href="Bundle-HighLevel_OllieOncken.html#ServiceRequest_57">Bundle: type = collection</a></p></blockquote></div>
        </text>
        <instantiatesCanonical value="http://cancerscreeningcds.github.io/crcsm-cds/PlanDefinition/flow-FollowUp"/>
        <status value="draft"/>
        <intent value="proposal"/>
        <subject>
          <reference value="Patient/OllieOncken"/>
          <display value="Ollie Oncken"/>
        </subject>
        <action id="FollowupColonoscopyCRCResult">
          <extension url="http://cancerscreeningcds.github.io/crcsm-cds/StructureDefinition/csm-recommendation-flag">
            <valueCodeableConcept>
              <coding>
                <system value="http://cancerscreeningcds.github.io/crcsm-cds/CodeSystem/recommendation-flag-code-system"/>
                <code value="due"/>
                <display value="Due"/>
              </coding>
            </valueCodeableConcept>
          </extension>
          <title value="Refer to Oncology"/>
          <description value="Refer to Oncology for evaluation."/>
          <code>
            <coding>
              <system value="http://cancerscreeningcds.github.io/crcsm-cds/CodeSystem/plan-definition-action-code-system"/>
              <code value="oncreferral"/>
              <display value="Oncologic referral"/>
            </coding>
          </code>
          <timingTiming>
            <event value="2024-12-02"/>
          </timingTiming>
          <resource>
            <reference value="ServiceRequest/57"/>
          </resource>
        </action>
      </RequestGroup>
    </resource>
  </entry>
  <entry>
    <fullUrl value="http://cancerscreeningcds.github.io/crcsm-cds/ServiceRequest/57"/>
    <resource>
      <ServiceRequest>
        <id value="57"/>
        <text>
          <status value="generated"/><div xmlns="http://www.w3.org/1999/xhtml"><a name="ServiceRequest_57"> </a><p class="res-header-id"><b>Generated Narrative: ServiceRequest 57</b></p><a name="57"> </a><a name="hc57"> </a><a name="57-en-US"> </a><p><b>basedOn</b>: <a href="ActivityDefinition-ColorectalCancerScreeningServiceRequest.html">Colorectal Cancer Screening Service Request</a></p><p><b>status</b>: option</p><p><b>intent</b>: Proposal</p><p><b>code</b>: <span title="Codes:{http://cancerscreeningcds.github.io/crcsm-cds/CodeSystem/plan-definition-action-code-system oncreferral}">Oncologic referral</span></p><p><b>subject</b>: <a href="Bundle-OllieOncken.html#Patient_OllieOncken">Ollie Oncken</a></p><p><b>occurrence</b>: 2024-12-02</p><p><b>reasonCode</b>: <span title="Codes:{http://cancerscreeningcds.github.io/crcsm-cds/CodeSystem/colonoscopy-result-observation-code-system crcfinding}">Colorectal cancer finding</span></p></div>
        </text>
        <basedOn>
          <reference value="http://cancerscreeningcds.github.io/crcsm-cds/ActivityDefinition/ColorectalCancerScreeningServiceRequest"/>
        </basedOn>
        <status value="option"/>
        <intent value="proposal"/>
        <code>
          <coding>
            <system value="http://cancerscreeningcds.github.io/crcsm-cds/CodeSystem/plan-definition-action-code-system"/>
            <code value="oncreferral"/>
            <display value="Oncologic referral"/>
          </coding>
        </code>
        <subject>
          <reference value="Patient/OllieOncken"/>
          <display value="Ollie Oncken"/>
        </subject>
        <occurrenceDateTime value="2024-12-02"/>
        <reasonCode>
          <coding>
            <system value="http://cancerscreeningcds.github.io/crcsm-cds/CodeSystem/colonoscopy-result-observation-code-system"/>
            <code value="crcfinding"/>
            <display value="Colorectal cancer finding"/>
          </coding>
        </reasonCode>
      </ServiceRequest>
    </resource>
  </entry>
</Bundle>