{
  "resourceType" : "Bundle",
  "id" : "IncreasedRiskExclusions_eve-HereditarySyndrome_no_eve-IBD_yes_act-IBD",
  "type" : "collection",
  "entry" : [{
    "fullUrl" : "http://cancerscreeningcds.github.io/crcsm-cds/CarePlan/202",
    "resource" : {
      "resourceType" : "CarePlan",
      "id" : "202",
      "text" : {
        "status" : "generated",
        "div" : "<div xmlns=\"http://www.w3.org/1999/xhtml\"><a name=\"CarePlan_202\"> </a><p class=\"res-header-id\"><b>Generated Narrative: CarePlan 202</b></p><a name=\"202\"> </a><a name=\"hc202\"> </a><a name=\"202-en-US\"> </a><p><b>instantiatesCanonical</b>: <a href=\"PlanDefinition-flow-IncreasedRiskExclusions.html\">Increased Risk Exclusions</a></p><p><b>status</b>: Draft</p><p><b>intent</b>: Proposal</p><p><b>subject</b>: <a href=\"Bundle-eve-HereditarySyndrome_no_eve-IBD_yes_act-IBD.html#Patient_755e2f30-a75b-424a-b08a-7a329693b9a2\">Joanne Smith</a></p><p><b>created</b>: 2024-12-10 00:00:00+0000</p><h3>Activities</h3><table class=\"grid\"><tr><td style=\"display: none\">-</td><td><b>Reference</b></td></tr><tr><td style=\"display: none\">*</td><td><a href=\"Bundle-IncreasedRiskExclusions_eve-HereditarySyndrome_no_eve-IBD_yes_act-IBD.html#RequestGroup_203\">Bundle: type = collection</a></td></tr></table></div>"
      },
      "instantiatesCanonical" : ["http://cancerscreeningcds.github.io/crcsm-cds/PlanDefinition/flow-IncreasedRiskExclusions"],
      "status" : "draft",
      "intent" : "proposal",
      "subject" : {
        "reference" : "Patient/755e2f30-a75b-424a-b08a-7a329693b9a2",
        "display" : "Joanne Smith"
      },
      "created" : "2024-12-10T00:00:00.0Z",
      "activity" : [{
        "reference" : {
          "reference" : "RequestGroup/203"
        }
      }]
    }
  },
  {
    "fullUrl" : "http://cancerscreeningcds.github.io/crcsm-cds/RequestGroup/203",
    "resource" : {
      "resourceType" : "RequestGroup",
      "id" : "203",
      "text" : {
        "status" : "generated",
        "div" : "<div xmlns=\"http://www.w3.org/1999/xhtml\"><a name=\"RequestGroup_203\"> </a><p class=\"res-header-id\"><b>Generated Narrative: RequestGroup 203</b></p><a name=\"203\"> </a><a name=\"hc203\"> </a><a name=\"203-en-US\"> </a><p><b>instantiatesCanonical</b>: <a href=\"PlanDefinition-flow-IncreasedRiskExclusions.html\">Increased Risk Exclusions</a></p><p><b>status</b>: Draft</p><p><b>intent</b>: Proposal</p><p><b>subject</b>: <a href=\"Bundle-eve-HereditarySyndrome_no_eve-IBD_yes_act-IBD.html#Patient_755e2f30-a75b-424a-b08a-7a329693b9a2\">Joanne Smith</a></p><blockquote><p><b>action</b></p><blockquote><p><b>id</b></p>IBDIncreasedRisk</blockquote><p><b>title</b>: IBD surveillance per specialist recommendations</p><p><b>description</b>: Start colonoscopy surveillance 8-10 years after disease onset.\n\nRepeat colonoscopy every 1-5 years based on GI specialist recommendations.</p><h3>Documentations</h3><table class=\"grid\"><tr><td style=\"display: none\">-</td><td><b>Type</b></td><td><b>Label</b></td><td><b>Display</b></td><td><b>Citation</b></td></tr><tr><td style=\"display: none\">*</td><td>Citation</td><td>ACG Crohn's Disease (2018)</td><td>ACG Clinical Guideline: Management of Crohn's Disease in Adults</td><td><div><p>Lichtenstein, G.R., et al. (2018). ACG Clinical Guideline: Management of Crohn's Disease in Adults. American Journal of Gastroenterology, 113(4), 481-517. https://doi.org/10.1038/ajg.2018.27</p>\n</div></td></tr><tr><td style=\"display: none\">*</td><td>Citation</td><td>ACG Ulcerative Colitis (2019)</td><td>ACG Clinical Guideline: Ulcerative Colitis in Adults</td><td><div><p>Rubin, D. T., et al. (2019). ACG Clinical Guideline: Ulcerative Colitis in Adults. The American journal of gastroenterology, 114(3), 384-413. https://doi.org/10.14309/ajg.0000000000000152</p>\n</div></td></tr><tr><td style=\"display: none\">*</td><td>Citation</td><td>AGA Inflammatory Bowel Disease (2021)</td><td>AGA Clinical Practice Update on Endoscopic Surveillance and Management of Colorectal Dysplasia in Inflammatory Bowel Diseases: Expert Review</td><td><div><p>Murthy, S. K., et al. (2021). AGA Clinical Practice Update on Endoscopic Surveillance and Management of Colorectal Dysplasia in Inflammatory Bowel Diseases: Expert Review. Gastroenterology, 161(3), 1043-1051.e4. https://doi.org/10.1053/j.gastro.2021.05.063</p>\n</div></td></tr></table><p><b>resource</b>: <a href=\"Bundle-IncreasedRiskExclusions_eve-HereditarySyndrome_no_eve-IBD_yes_act-IBD.html#ServiceRequest_204\">Bundle: type = collection</a></p></blockquote></div>"
      },
      "instantiatesCanonical" : ["http://cancerscreeningcds.github.io/crcsm-cds/PlanDefinition/flow-IncreasedRiskExclusions"],
      "status" : "draft",
      "intent" : "proposal",
      "subject" : {
        "reference" : "Patient/755e2f30-a75b-424a-b08a-7a329693b9a2",
        "display" : "Joanne Smith"
      },
      "action" : [{
        "id" : "IBDIncreasedRisk",
        "title" : "IBD surveillance per specialist recommendations",
        "description" : "Start colonoscopy surveillance 8-10 years after disease onset.\n\nRepeat colonoscopy every 1-5 years based on GI specialist recommendations.",
        "documentation" : [{
          "type" : "citation",
          "label" : "ACG Crohn's Disease (2018)",
          "display" : "ACG Clinical Guideline: Management of Crohn's Disease in Adults",
          "citation" : "Lichtenstein, G.R., et al. (2018). ACG Clinical Guideline: Management of Crohn's Disease in Adults. American Journal of Gastroenterology, 113(4), 481-517. https://doi.org/10.1038/ajg.2018.27"
        },
        {
          "type" : "citation",
          "label" : "ACG Ulcerative Colitis (2019)",
          "display" : "ACG Clinical Guideline: Ulcerative Colitis in Adults",
          "citation" : "Rubin, D. T., et al. (2019). ACG Clinical Guideline: Ulcerative Colitis in Adults. The American journal of gastroenterology, 114(3), 384-413. https://doi.org/10.14309/ajg.0000000000000152"
        },
        {
          "type" : "citation",
          "label" : "AGA Inflammatory Bowel Disease (2021)",
          "display" : "AGA Clinical Practice Update on Endoscopic Surveillance and Management of Colorectal Dysplasia in Inflammatory Bowel Diseases: Expert Review",
          "citation" : "Murthy, S. K., et al. (2021). AGA Clinical Practice Update on Endoscopic Surveillance and Management of Colorectal Dysplasia in Inflammatory Bowel Diseases: Expert Review. Gastroenterology, 161(3), 1043-1051.e4. https://doi.org/10.1053/j.gastro.2021.05.063"
        }],
        "resource" : {
          "reference" : "ServiceRequest/204"
        }
      }]
    }
  },
  {
    "fullUrl" : "http://cancerscreeningcds.github.io/crcsm-cds/ServiceRequest/204",
    "resource" : {
      "resourceType" : "ServiceRequest",
      "id" : "204",
      "text" : {
        "status" : "generated",
        "div" : "<div xmlns=\"http://www.w3.org/1999/xhtml\"><a name=\"ServiceRequest_204\"> </a><p class=\"res-header-id\"><b>Generated Narrative: ServiceRequest 204</b></p><a name=\"204\"> </a><a name=\"hc204\"> </a><a name=\"204-en-US\"> </a><p><b>basedOn</b>: <a href=\"ActivityDefinition-ColorectalCancerScreeningServiceRequest.html\">Colorectal Cancer Screening Service Request</a></p><p><b>status</b>: option</p><p><b>intent</b>: Proposal</p><p><b>code</b>: <span title=\"Codes:{http://snomed.info/sct 452071000124102}\">Surveillance for colorectal cancer (regime/therapy)</span></p><p><b>subject</b>: <a href=\"Bundle-eve-HereditarySyndrome_no_eve-IBD_yes_act-IBD.html#Patient_755e2f30-a75b-424a-b08a-7a329693b9a2\">Joanne Smith</a></p><p><b>reasonCode</b>: <span title=\"Codes:{http://snomed.info/sct 24526004}\">Inflammatory bowel disease (disorder)</span></p></div>"
      },
      "basedOn" : [{
        "reference" : "http://cancerscreeningcds.github.io/crcsm-cds/ActivityDefinition/ColorectalCancerScreeningServiceRequest"
      }],
      "status" : "option",
      "intent" : "proposal",
      "code" : {
        "coding" : [{
          "system" : "http://snomed.info/sct",
          "code" : "452071000124102",
          "display" : "Surveillance for colorectal cancer (regime/therapy)"
        }]
      },
      "subject" : {
        "reference" : "Patient/755e2f30-a75b-424a-b08a-7a329693b9a2",
        "display" : "Joanne Smith"
      },
      "reasonCode" : [{
        "coding" : [{
          "system" : "http://snomed.info/sct",
          "code" : "24526004",
          "display" : "Inflammatory bowel disease (disorder)"
        }]
      }]
    }
  }]
}