{
  "resourceType" : "Bundle",
  "id" : "HighLevel_OllieOncken",
  "type" : "collection",
  "entry" : [{
    "fullUrl" : "http://cancerscreeningcds.github.io/crcsm-cds/CarePlan/51",
    "resource" : {
      "resourceType" : "CarePlan",
      "id" : "51",
      "text" : {
        "status" : "generated",
        "div" : "<div xmlns=\"http://www.w3.org/1999/xhtml\"><a name=\"CarePlan_51\"> </a><p class=\"res-header-id\"><b>Generated Narrative: CarePlan 51</b></p><a name=\"51\"> </a><a name=\"hc51\"> </a><a name=\"51-en-US\"> </a><p><b>instantiatesCanonical</b>: <a href=\"PlanDefinition-HighLevel.html\">High Level Flow</a></p><p><b>status</b>: Draft</p><p><b>intent</b>: Proposal</p><p><b>subject</b>: <a href=\"Bundle-OllieOncken.html#Patient_OllieOncken\">Ollie Oncken</a></p><p><b>created</b>: 2024-12-10 00:00:00+0000</p><h3>Activities</h3><table class=\"grid\"><tr><td style=\"display: none\">-</td><td><b>Reference</b></td></tr><tr><td style=\"display: none\">*</td><td><a href=\"Bundle-HighLevel_OllieOncken.html#RequestGroup_52\">Bundle: type = collection</a></td></tr></table></div>"
      },
      "instantiatesCanonical" : ["http://cancerscreeningcds.github.io/crcsm-cds/PlanDefinition/HighLevel"],
      "status" : "draft",
      "intent" : "proposal",
      "subject" : {
        "reference" : "Patient/OllieOncken",
        "display" : "Ollie Oncken"
      },
      "created" : "2024-12-10T00:00:00.0Z",
      "activity" : [{
        "reference" : {
          "reference" : "RequestGroup/52"
        }
      }]
    }
  },
  {
    "fullUrl" : "http://cancerscreeningcds.github.io/crcsm-cds/RequestGroup/52",
    "resource" : {
      "resourceType" : "RequestGroup",
      "id" : "52",
      "text" : {
        "status" : "generated",
        "div" : "<div xmlns=\"http://www.w3.org/1999/xhtml\"><a name=\"RequestGroup_52\"> </a><p class=\"res-header-id\"><b>Generated Narrative: RequestGroup 52</b></p><a name=\"52\"> </a><a name=\"hc52\"> </a><a name=\"52-en-US\"> </a><p><b>instantiatesCanonical</b>: <a href=\"PlanDefinition-HighLevel.html\">High Level Flow</a></p><p><b>status</b>: Draft</p><p><b>intent</b>: Proposal</p><p><b>subject</b>: <a href=\"Bundle-OllieOncken.html#Patient_OllieOncken\">Ollie Oncken</a></p><blockquote><p><b>action</b></p><blockquote><p><b>id</b></p>53</blockquote><p><b>title</b>: Followup Screening Result</p><p><b>description</b>: Determines next steps, if any, based on result of screening tests. This may be triggered by a diagnostic report being received by the system or a test result being documented in a structured manner.</p><p><b>resource</b>: <a href=\"Bundle-HighLevel_OllieOncken.html#CarePlan_55\">Bundle: type = collection</a></p></blockquote></div>"
      },
      "instantiatesCanonical" : ["http://cancerscreeningcds.github.io/crcsm-cds/PlanDefinition/HighLevel"],
      "status" : "draft",
      "intent" : "proposal",
      "subject" : {
        "reference" : "Patient/OllieOncken",
        "display" : "Ollie Oncken"
      },
      "action" : [{
        "id" : "53",
        "title" : "Followup Screening Result",
        "description" : "Determines next steps, if any, based on result of screening tests. This may be triggered by a diagnostic report being received by the system or a test result being documented in a structured manner.",
        "resource" : {
          "reference" : "CarePlan/55"
        }
      }]
    }
  },
  {
    "fullUrl" : "http://cancerscreeningcds.github.io/crcsm-cds/CarePlan/55",
    "resource" : {
      "resourceType" : "CarePlan",
      "id" : "55",
      "text" : {
        "status" : "generated",
        "div" : "<div xmlns=\"http://www.w3.org/1999/xhtml\"><a name=\"CarePlan_55\"> </a><p class=\"res-header-id\"><b>Generated Narrative: CarePlan 55</b></p><a name=\"55\"> </a><a name=\"hc55\"> </a><a name=\"55-en-US\"> </a><p><b>instantiatesCanonical</b>: <a href=\"PlanDefinition-flow-FollowUp.html\">Follow Up</a></p><p><b>status</b>: option</p><p><b>intent</b>: Proposal</p><p><b>subject</b>: <a href=\"Bundle-OllieOncken.html#Patient_OllieOncken\">Ollie Oncken</a></p><p><b>created</b>: 2024-12-10 00:00:00+0000</p><h3>Activities</h3><table class=\"grid\"><tr><td style=\"display: none\">-</td><td><b>Reference</b></td></tr><tr><td style=\"display: none\">*</td><td><a href=\"Bundle-HighLevel_OllieOncken.html#RequestGroup_56\">Bundle: type = collection</a></td></tr></table></div>"
      },
      "instantiatesCanonical" : ["http://cancerscreeningcds.github.io/crcsm-cds/PlanDefinition/flow-FollowUp"],
      "status" : "option",
      "intent" : "proposal",
      "subject" : {
        "reference" : "Patient/OllieOncken",
        "display" : "Ollie Oncken"
      },
      "created" : "2024-12-10T00:00:00.0Z",
      "activity" : [{
        "reference" : {
          "reference" : "RequestGroup/56"
        }
      }]
    }
  },
  {
    "fullUrl" : "http://cancerscreeningcds.github.io/crcsm-cds/RequestGroup/56",
    "resource" : {
      "resourceType" : "RequestGroup",
      "id" : "56",
      "text" : {
        "status" : "extensions",
        "div" : "<div xmlns=\"http://www.w3.org/1999/xhtml\"><a name=\"RequestGroup_56\"> </a><p class=\"res-header-id\"><b>Generated Narrative: RequestGroup 56</b></p><a name=\"56\"> </a><a name=\"hc56\"> </a><a name=\"56-en-US\"> </a><p><b>instantiatesCanonical</b>: <a href=\"PlanDefinition-flow-FollowUp.html\">Follow Up</a></p><p><b>status</b>: Draft</p><p><b>intent</b>: Proposal</p><p><b>subject</b>: <a href=\"Bundle-OllieOncken.html#Patient_OllieOncken\">Ollie Oncken</a></p><blockquote><p><b>action</b></p><blockquote><p><b>id</b></p>FollowupColonoscopyCRCResult</blockquote><p><b>io/crcsm-cds/StructureDefinition/csm-recommendation-flag</b>: <span title=\"Codes:{http://cancerscreeningcds.github.io/crcsm-cds/CodeSystem/recommendation-flag-code-system due}\">Due</span></p><p><b>title</b>: Refer to Oncology</p><p><b>description</b>: Refer to Oncology for evaluation.</p><p><b>code</b>: <span title=\"Codes:{http://cancerscreeningcds.github.io/crcsm-cds/CodeSystem/plan-definition-action-code-system oncreferral}\">Oncologic referral</span></p><p><b>timing</b>: Events: 2024-12-02 </p><p><b>resource</b>: <a href=\"Bundle-HighLevel_OllieOncken.html#ServiceRequest_57\">Bundle: type = collection</a></p></blockquote></div>"
      },
      "instantiatesCanonical" : ["http://cancerscreeningcds.github.io/crcsm-cds/PlanDefinition/flow-FollowUp"],
      "status" : "draft",
      "intent" : "proposal",
      "subject" : {
        "reference" : "Patient/OllieOncken",
        "display" : "Ollie Oncken"
      },
      "action" : [{
        "id" : "FollowupColonoscopyCRCResult",
        "extension" : [{
          "url" : "http://cancerscreeningcds.github.io/crcsm-cds/StructureDefinition/csm-recommendation-flag",
          "valueCodeableConcept" : {
            "coding" : [{
              "system" : "http://cancerscreeningcds.github.io/crcsm-cds/CodeSystem/recommendation-flag-code-system",
              "code" : "due",
              "display" : "Due"
            }]
          }
        }],
        "title" : "Refer to Oncology",
        "description" : "Refer to Oncology for evaluation.",
        "code" : [{
          "coding" : [{
            "system" : "http://cancerscreeningcds.github.io/crcsm-cds/CodeSystem/plan-definition-action-code-system",
            "code" : "oncreferral",
            "display" : "Oncologic referral"
          }]
        }],
        "timingTiming" : {
          "event" : ["2024-12-02"]
        },
        "resource" : {
          "reference" : "ServiceRequest/57"
        }
      }]
    }
  },
  {
    "fullUrl" : "http://cancerscreeningcds.github.io/crcsm-cds/ServiceRequest/57",
    "resource" : {
      "resourceType" : "ServiceRequest",
      "id" : "57",
      "text" : {
        "status" : "generated",
        "div" : "<div xmlns=\"http://www.w3.org/1999/xhtml\"><a name=\"ServiceRequest_57\"> </a><p class=\"res-header-id\"><b>Generated Narrative: ServiceRequest 57</b></p><a name=\"57\"> </a><a name=\"hc57\"> </a><a name=\"57-en-US\"> </a><p><b>basedOn</b>: <a href=\"ActivityDefinition-ColorectalCancerScreeningServiceRequest.html\">Colorectal Cancer Screening Service Request</a></p><p><b>status</b>: option</p><p><b>intent</b>: Proposal</p><p><b>code</b>: <span title=\"Codes:{http://cancerscreeningcds.github.io/crcsm-cds/CodeSystem/plan-definition-action-code-system oncreferral}\">Oncologic referral</span></p><p><b>subject</b>: <a href=\"Bundle-OllieOncken.html#Patient_OllieOncken\">Ollie Oncken</a></p><p><b>occurrence</b>: 2024-12-02</p><p><b>reasonCode</b>: <span title=\"Codes:{http://cancerscreeningcds.github.io/crcsm-cds/CodeSystem/colonoscopy-result-observation-code-system crcfinding}\">Colorectal cancer finding</span></p></div>"
      },
      "basedOn" : [{
        "reference" : "http://cancerscreeningcds.github.io/crcsm-cds/ActivityDefinition/ColorectalCancerScreeningServiceRequest"
      }],
      "status" : "option",
      "intent" : "proposal",
      "code" : {
        "coding" : [{
          "system" : "http://cancerscreeningcds.github.io/crcsm-cds/CodeSystem/plan-definition-action-code-system",
          "code" : "oncreferral",
          "display" : "Oncologic referral"
        }]
      },
      "subject" : {
        "reference" : "Patient/OllieOncken",
        "display" : "Ollie Oncken"
      },
      "occurrenceDateTime" : "2024-12-02",
      "reasonCode" : [{
        "coding" : [{
          "system" : "http://cancerscreeningcds.github.io/crcsm-cds/CodeSystem/colonoscopy-result-observation-code-system",
          "code" : "crcfinding",
          "display" : "Colorectal cancer finding"
        }]
      }]
    }
  }]
}