{
  "resourceType" : "Bundle",
  "id" : "eve-lastTestColonoscopy_yes_eve-colonoscopyFindingCRC_no_eve-recommendedInterval_yes_end-1",
  "type" : "collection",
  "entry" : [{
    "resource" : {
      "resourceType" : "Patient",
      "id" : "aa0b51af-a2b0-4bb0-8290-13918952bdf4",
      "text" : {
        "status" : "generated",
        "div" : "<div xmlns=\"http://www.w3.org/1999/xhtml\"><a name=\"Patient_aa0b51af-a2b0-4bb0-8290-13918952bdf4\"> </a><p class=\"res-header-id\"><b>Generated Narrative: Patient aa0b51af-a2b0-4bb0-8290-13918952bdf4</b></p><a name=\"aa0b51af-a2b0-4bb0-8290-13918952bdf4\"> </a><a name=\"hcaa0b51af-a2b0-4bb0-8290-13918952bdf4\"> </a><a name=\"aa0b51af-a2b0-4bb0-8290-13918952bdf4-en-US\"> </a><p style=\"border: 1px #661aff solid; background-color: #e6e6ff; padding: 10px;\">Joanne Smith  Other, DoB: 1971-01-01</p><hr/><table class=\"grid\"><tr><td style=\"background-color: #f3f5da\" title=\"A code classifying the person's sex assigned at birth  as specified by the [Office of the National Coordinator for Health IT (ONC)](https://www.healthit.gov/newsroom/about-onc). This extension aligns with the C-CDA Birth Sex Observation (LOINC 76689-9).\"><a href=\"http://hl7.org/fhir/us/core/STU3.1/StructureDefinition-us-core-birthsex.html\">US Core Birth Sex Extension</a></td><td colspan=\"3\">F</td></tr></table></div>"
      },
      "extension" : [{
        "url" : "http://hl7.org/fhir/us/core/StructureDefinition/us-core-birthsex",
        "valueCode" : "F"
      }],
      "name" : [{
        "family" : "Smith",
        "given" : ["Joanne"]
      }],
      "gender" : "other",
      "birthDate" : "1971-01-01"
    }
  },
  {
    "resource" : {
      "resourceType" : "DiagnosticReport",
      "id" : "colonoscopy-report-1",
      "text" : {
        "status" : "generated",
        "div" : "<div xmlns=\"http://www.w3.org/1999/xhtml\"><a name=\"DiagnosticReport_colonoscopy-report-1\"> </a><p class=\"res-header-id\"><b>Generated Narrative: DiagnosticReport colonoscopy-report-1</b></p><a name=\"colonoscopy-report-1\"> </a><a name=\"hccolonoscopy-report-1\"> </a><a name=\"colonoscopy-report-1-en-US\"> </a><h2><span title=\"Codes:{http://loinc.org 18746-8}\">Colonoscopy study</span> </h2><table class=\"grid\"><tr><td>Subject</td><td>Not done yet</td></tr><tr><td>When For</td><td>2024-10-01 00:00:00+0000</td></tr></table><p><b>Report Details</b></p><table class=\"grid\"><tr><td><b>Code</b></td><td><b>Value</b></td></tr><tr><td/><td/></tr></table></div>"
      },
      "status" : "final",
      "code" : {
        "coding" : [{
          "system" : "http://loinc.org",
          "code" : "18746-8",
          "display" : "Colonoscopy study"
        }]
      },
      "subject" : {
        "reference" : "Patient/aa0b51af-a2b0-4bb0-8290-13918952bdf4"
      },
      "effectiveDateTime" : "2024-10-01T00:00:00.000Z",
      "result" : [{
        "reference" : "Observation/observation-1"
      }]
    }
  },
  {
    "resource" : {
      "resourceType" : "Observation",
      "id" : "observation-1",
      "text" : {
        "status" : "generated",
        "div" : "<div xmlns=\"http://www.w3.org/1999/xhtml\"><a name=\"Observation_observation-1\"> </a><p class=\"res-header-id\"><b>Generated Narrative: Observation observation-1</b></p><a name=\"observation-1\"> </a><a name=\"hcobservation-1\"> </a><a name=\"observation-1-en-US\"> </a><p><b>status</b>: Final</p><p><b>code</b>: <span title=\"Codes:{http://snomed.info/sct 470191000124102}\">Colorectal cancer screening follow-up planning (procedure)</span></p><p><b>subject</b>: <a href=\"Bundle-eve-lastTestColonoscopy_yes_eve-colonoscopyFindingCRC_no_eve-recommendedInterval_yes_end-1.html#Patient_aa0b51af-a2b0-4bb0-8290-13918952bdf4\">Bundle: type = collection</a></p><p><b>effective</b>: 2024-10-01 00:00:00+0000</p><p><b>value</b>: 5 years</p></div>"
      },
      "status" : "final",
      "code" : {
        "coding" : [{
          "system" : "http://snomed.info/sct",
          "code" : "470191000124102",
          "display" : "Colorectal cancer screening follow-up planning (procedure)"
        }]
      },
      "subject" : {
        "reference" : "Patient/aa0b51af-a2b0-4bb0-8290-13918952bdf4"
      },
      "effectiveDateTime" : "2024-10-01T00:00:00.000Z",
      "valueQuantity" : {
        "value" : 5,
        "unit" : "years"
      }
    }
  },
  {
    "resource" : {
      "resourceType" : "Observation",
      "id" : "observation-2",
      "text" : {
        "status" : "generated",
        "div" : "<div xmlns=\"http://www.w3.org/1999/xhtml\"><a name=\"Observation_observation-2\"> </a><p class=\"res-header-id\"><b>Generated Narrative: Observation observation-2</b></p><a name=\"observation-2\"> </a><a name=\"hcobservation-2\"> </a><a name=\"observation-2-en-US\"> </a><p><b>status</b>: Final</p><p><b>code</b>: <span title=\"Codes:{http://loinc.org 18746-8}\">Colonoscopy study</span></p><p><b>subject</b>: <a href=\"Bundle-eve-lastTestColonoscopy_yes_eve-colonoscopyFindingCRC_no_eve-recommendedInterval_yes_end-1.html#Patient_aa0b51af-a2b0-4bb0-8290-13918952bdf4\">Bundle: type = collection</a></p><p><b>effective</b>: 2024-10-01 00:00:00+0000</p><p><b>value</b>: <span title=\"Codes:{http://snomed.info/sct 428054006}\">Adenomatous polyp of colon (disorder)</span></p></div>"
      },
      "status" : "final",
      "code" : {
        "coding" : [{
          "system" : "http://loinc.org",
          "code" : "18746-8",
          "display" : "Colonoscopy study"
        }]
      },
      "subject" : {
        "reference" : "Patient/aa0b51af-a2b0-4bb0-8290-13918952bdf4"
      },
      "effectiveDateTime" : "2024-10-01T00:00:00.000Z",
      "valueCodeableConcept" : {
        "coding" : [{
          "system" : "http://snomed.info/sct",
          "code" : "428054006",
          "display" : "Adenomatous polyp of colon (disorder)"
        }]
      }
    }
  }]
}