{
  "resourceType" : "Bundle",
  "id" : "PaulinePolyanski",
  "type" : "collection",
  "entry" : [{
    "resource" : {
      "resourceType" : "Patient",
      "id" : "PaulinePolyanski",
      "text" : {
        "status" : "generated",
        "div" : "<div xmlns=\"http://www.w3.org/1999/xhtml\"><a name=\"Patient_PaulinePolyanski\"> </a><p class=\"res-header-id\"><b>Generated Narrative: Patient PaulinePolyanski</b></p><a name=\"PaulinePolyanski\"> </a><a name=\"hcPaulinePolyanski\"> </a><a name=\"PaulinePolyanski-en-US\"> </a><p style=\"border: 1px #661aff solid; background-color: #e6e6ff; padding: 10px;\">Pauline Polyasnki  Female, DoB: 1978-04-10 ( Medical Record Number: 123-345-567)</p><hr/><table class=\"grid\"><tr><td style=\"background-color: #f3f5da\" title=\"Concepts classifying the person into a named category of humans sharing common history, traits, geographical origin or nationality.  The ethnicity codes used to represent these concepts are based upon the [CDC ethnicity and Ethnicity Code Set Version 1.0](http://www.cdc.gov/phin/resources/vocabulary/index.html) which includes over 900 concepts for representing race and ethnicity of which 43 reference ethnicity.  The ethnicity concepts are grouped by and pre-mapped to the 2 OMB ethnicity categories: - Hispanic or Latino - Not Hispanic or Latino.\">US Core Ethnicity Extension:</td><td colspan=\"3\"><ul><li>text: Not Hispanic or Latino</li></ul></td></tr><tr><td style=\"background-color: #f3f5da\" title=\"Concepts classifying the person into a named category of humans sharing common history, traits, geographical origin or nationality.  The race codes used to represent these concepts are based upon the [CDC Race and Ethnicity Code Set Version 1.0](http://www.cdc.gov/phin/resources/vocabulary/index.html) which includes over 900 concepts for representing race and ethnicity of which 921 reference race.  The race concepts are grouped by and pre-mapped to the 5 OMB race categories:\n\n - American Indian or Alaska Native\n - Asian\n - Black or African American\n - Native Hawaiian or Other Pacific Islander\n - White.\">US Core Race Extension:</td><td colspan=\"3\"><ul><li>text: Black or African American</li></ul></td></tr></table></div>"
      },
      "extension" : [{
        "extension" : [{
          "url" : "text",
          "valueString" : "Black or African American"
        }],
        "url" : "http://hl7.org/fhir/us/core/StructureDefinition/us-core-race"
      },
      {
        "extension" : [{
          "url" : "text",
          "valueString" : "Not Hispanic or Latino"
        }],
        "url" : "http://hl7.org/fhir/us/core/StructureDefinition/us-core-ethnicity"
      }],
      "identifier" : [{
        "type" : {
          "coding" : [{
            "code" : "MR",
            "display" : "Medical Record Number"
          }]
        },
        "value" : "123-345-567"
      }],
      "name" : [{
        "family" : "Polyasnki",
        "given" : ["Pauline"]
      }],
      "gender" : "female",
      "birthDate" : "1978-04-10"
    }
  },
  {
    "resource" : {
      "resourceType" : "DiagnosticReport",
      "id" : "colonoscopy-report-with-followup",
      "text" : {
        "status" : "generated",
        "div" : "<div xmlns=\"http://www.w3.org/1999/xhtml\"><a name=\"DiagnosticReport_colonoscopy-report-with-followup\"> </a><p class=\"res-header-id\"><b>Generated Narrative: DiagnosticReport colonoscopy-report-with-followup</b></p><a name=\"colonoscopy-report-with-followup\"> </a><a name=\"hccolonoscopy-report-with-followup\"> </a><a name=\"colonoscopy-report-with-followup-en-US\"> </a><h2><span title=\"Codes:{http://loinc.org 18746-8}\">Colonoscopy study</span> </h2><table class=\"grid\"><tr><td>Subject</td><td>Not done yet</td></tr><tr><td>When For</td><td>2024-02-18 00:00:00+0000</td></tr></table><p><b>Report Details</b></p><table class=\"grid\"><tr><td><b>Code</b></td><td><b>Value</b></td></tr><tr><td/><td/></tr><tr><td/><td/></tr></table></div>"
      },
      "status" : "final",
      "code" : {
        "coding" : [{
          "system" : "http://loinc.org",
          "code" : "18746-8",
          "display" : "Colonoscopy study"
        }]
      },
      "subject" : {
        "reference" : "Patient/PaulinePolyanski"
      },
      "effectiveDateTime" : "2024-02-18T00:00:00.000Z",
      "result" : [{
        "reference" : "Observation/observation-1"
      },
      {
        "reference" : "Observation/observation-2"
      }]
    }
  },
  {
    "resource" : {
      "resourceType" : "Observation",
      "id" : "observation-1",
      "text" : {
        "status" : "generated",
        "div" : "<div xmlns=\"http://www.w3.org/1999/xhtml\"><a name=\"Observation_observation-1\"> </a><p class=\"res-header-id\"><b>Generated Narrative: Observation observation-1</b></p><a name=\"observation-1\"> </a><a name=\"hcobservation-1\"> </a><a name=\"observation-1-en-US\"> </a><p><b>status</b>: Final</p><p><b>code</b>: <span title=\"Codes:{http://snomed.info/sct 470191000124102}\">Colorectal cancer screening follow-up planning (procedure)</span></p><p><b>subject</b>: <a href=\"Bundle-PaulinePolyanski.html#Patient_PaulinePolyanski\">Bundle: type = collection</a></p><p><b>effective</b>: 2024-02-18 00:00:00+0000</p><p><b>value</b>: 3 years<span style=\"background: LightGoldenRodYellow\"> (Details: UCUM  codea = 'a')</span></p></div>"
      },
      "status" : "final",
      "code" : {
        "coding" : [{
          "system" : "http://snomed.info/sct",
          "code" : "470191000124102",
          "display" : "Colorectal cancer screening follow-up planning (procedure)"
        }]
      },
      "subject" : {
        "reference" : "Patient/PaulinePolyanski"
      },
      "effectiveDateTime" : "2024-02-18T00:00:00.000Z",
      "valueQuantity" : {
        "value" : 3,
        "unit" : "years",
        "system" : "http://unitsofmeasure.org",
        "code" : "a"
      }
    }
  },
  {
    "resource" : {
      "resourceType" : "Observation",
      "id" : "observation-2",
      "text" : {
        "status" : "generated",
        "div" : "<div xmlns=\"http://www.w3.org/1999/xhtml\"><a name=\"Observation_observation-2\"> </a><p class=\"res-header-id\"><b>Generated Narrative: Observation observation-2</b></p><a name=\"observation-2\"> </a><a name=\"hcobservation-2\"> </a><a name=\"observation-2-en-US\"> </a><p><b>status</b>: Final</p><p><b>code</b>: <span title=\"Codes:{http://loinc.org 18746-8}\">Colonoscopy study</span></p><p><b>subject</b>: <a href=\"Bundle-PaulinePolyanski.html#Patient_PaulinePolyanski\">Bundle: type = collection</a></p><p><b>effective</b>: 2024-02-18 00:00:00+0000</p><p><b>value</b>: <span title=\"Codes:{http://snomed.info/sct 428054006}\">Adenomatous polyp of colon (disorder)</span></p></div>"
      },
      "status" : "final",
      "code" : {
        "coding" : [{
          "system" : "http://loinc.org",
          "code" : "18746-8",
          "display" : "Colonoscopy study"
        }]
      },
      "subject" : {
        "reference" : "Patient/PaulinePolyanski"
      },
      "effectiveDateTime" : "2024-02-18T00:00:00.000Z",
      "valueCodeableConcept" : {
        "coding" : [{
          "system" : "http://snomed.info/sct",
          "code" : "428054006",
          "display" : "Adenomatous polyp of colon (disorder)"
        }]
      }
    }
  },
  {
    "resource" : {
      "resourceType" : "DiagnosticReport",
      "id" : "fit-report-pos",
      "text" : {
        "status" : "generated",
        "div" : "<div xmlns=\"http://www.w3.org/1999/xhtml\"><a name=\"DiagnosticReport_fit-report-pos\"> </a><p class=\"res-header-id\"><b>Generated Narrative: DiagnosticReport fit-report-pos</b></p><a name=\"fit-report-pos\"> </a><a name=\"hcfit-report-pos\"> </a><a name=\"fit-report-pos-en-US\"> </a><h2><span title=\"Codes:{http://loinc.org 29771-3}\">Hemoglobin.gastrointestinal.lower [Presence] in Stool by Immunoassay</span> </h2><table class=\"grid\"><tr><td>Subject</td><td>Not done yet</td></tr><tr><td>When For</td><td>2023-12-04 00:00:00+0000</td></tr></table><p><b>Report Details</b></p><p><b>Coded Conclusions:</b></p><ul><li><span title=\"Codes:{http://snomed.info/sct 10828004}\">Positive (qualifier value)</span></li></ul></div>"
      },
      "status" : "final",
      "code" : {
        "coding" : [{
          "system" : "http://loinc.org",
          "code" : "29771-3",
          "display" : "Hemoglobin.gastrointestinal.lower [Presence] in Stool by Immunoassay"
        }]
      },
      "subject" : {
        "reference" : "Patient/PaulinePolyanski"
      },
      "effectiveDateTime" : "2023-12-04T00:00:00.000Z",
      "conclusionCode" : [{
        "coding" : [{
          "system" : "http://snomed.info/sct",
          "code" : "10828004",
          "display" : "Positive (qualifier value)"
        }]
      }]
    }
  }]
}