<?xml version="1.0" encoding="UTF-8"?>

<Bundle xmlns="http://hl7.org/fhir">
  <id value="PrimaryScreeningDecision_EduardElder"/>
  <type value="collection"/>
  <entry>
    <fullUrl value="http://cancerscreeningcds.github.io/crcsm-cds/CarePlan/91"/>
    <resource>
      <CarePlan>
        <id value="91"/>
        <text>
          <status value="generated"/><div xmlns="http://www.w3.org/1999/xhtml"><a name="CarePlan_91"> </a><p class="res-header-id"><b>Generated Narrative: CarePlan 91</b></p><a name="91"> </a><a name="hc91"> </a><a name="91-en-US"> </a><p><b>instantiatesCanonical</b>: <a href="PlanDefinition-PrimaryScreeningDecision.html">Primary Screening Decision</a></p><p><b>status</b>: Draft</p><p><b>intent</b>: Proposal</p><p><b>subject</b>: <a href="Bundle-EduardElder.html#Patient_EduardElder">Eduard Elder</a></p><p><b>created</b>: 2024-12-10 00:00:00+0000</p><h3>Activities</h3><table class="grid"><tr><td style="display: none">-</td><td><b>Reference</b></td></tr><tr><td style="display: none">*</td><td><a href="Bundle-PrimaryScreeningDecision_EduardElder.html#RequestGroup_92">Bundle: type = collection</a></td></tr></table></div>
        </text>
        <instantiatesCanonical value="http://cancerscreeningcds.github.io/crcsm-cds/PlanDefinition/PrimaryScreeningDecision"/>
        <status value="draft"/>
        <intent value="proposal"/>
        <subject>
          <reference value="Patient/EduardElder"/>
          <display value="Eduard Elder"/>
        </subject>
        <created value="2024-12-10T00:00:00.0Z"/>
        <activity>
          <reference>
            <reference value="RequestGroup/92"/>
          </reference>
        </activity>
      </CarePlan>
    </resource>
  </entry>
  <entry>
    <fullUrl value="http://cancerscreeningcds.github.io/crcsm-cds/RequestGroup/92"/>
    <resource>
      <RequestGroup>
        <id value="92"/>
        <text>
          <status value="generated"/><div xmlns="http://www.w3.org/1999/xhtml"><a name="RequestGroup_92"> </a><p class="res-header-id"><b>Generated Narrative: RequestGroup 92</b></p><a name="92"> </a><a name="hc92"> </a><a name="92-en-US"> </a><p><b>instantiatesCanonical</b>: <a href="PlanDefinition-PrimaryScreeningDecision.html">Primary Screening Decision</a></p><p><b>status</b>: Draft</p><p><b>intent</b>: Proposal</p><p><b>subject</b>: <a href="Bundle-EduardElder.html#Patient_EduardElder">Eduard Elder</a></p><blockquote><p><b>action</b></p><blockquote><p><b>id</b></p>StopScreeningAge</blockquote><p><b>title</b>: Stop screening</p><p><b>description</b>: Evidence is lacking on benefits and harms of colorectal cancer screening for individuals aged 86 and older. Competing causes of mortality likely preclude survival benefit that would outweigh the harms of screening.</p><p><b>resource</b>: <a href="Bundle-PrimaryScreeningDecision_EduardElder.html#CommunicationRequest_93">Bundle: type = collection</a></p></blockquote></div>
        </text>
        <instantiatesCanonical value="http://cancerscreeningcds.github.io/crcsm-cds/PlanDefinition/PrimaryScreeningDecision"/>
        <status value="draft"/>
        <intent value="proposal"/>
        <subject>
          <reference value="Patient/EduardElder"/>
          <display value="Eduard Elder"/>
        </subject>
        <action id="StopScreeningAge">
          <title value="Stop screening"/>
          <description value="Evidence is lacking on benefits and harms of colorectal cancer screening for individuals aged 86 and older. Competing causes of mortality likely preclude survival benefit that would outweigh the harms of screening."/>
          <resource>
            <reference value="CommunicationRequest/93"/>
          </resource>
        </action>
      </RequestGroup>
    </resource>
  </entry>
  <entry>
    <fullUrl value="http://cancerscreeningcds.github.io/crcsm-cds/CommunicationRequest/93"/>
    <resource>
      <CommunicationRequest>
        <id value="93"/>
        <text>
          <status value="generated"/><div xmlns="http://www.w3.org/1999/xhtml"><a name="CommunicationRequest_93"> </a><p class="res-header-id"><b>Generated Narrative: CommunicationRequest 93</b></p><a name="93"> </a><a name="hc93"> </a><a name="93-en-US"> </a><p><b>basedOn</b>: <a href="ActivityDefinition-CommunicateRecommendationStopScreening.html">Communicate Recommendation to Stop Screening</a></p><p><b>status</b>: option</p><p><b>subject</b>: <a href="Bundle-EduardElder.html#Patient_EduardElder">Eduard Elder</a></p><h3>Payloads</h3><table class="grid"><tr><td style="display: none">-</td><td><b>Content[x]</b></td></tr><tr><td style="display: none">*</td><td>Stop screening</td></tr></table><p><b>reasonCode</b>: <span title="Codes:{http://cancerscreeningcds.github.io/crcsm-cds/CodeSystem/plan-definition-action-reason-code-system ageover86}">Age over 86 years</span></p></div>
        </text>
        <basedOn>
          <reference value="http://cancerscreeningcds.github.io/crcsm-cds/ActivityDefinition/CommunicateRecommendationStopScreening"/>
        </basedOn>
        <status value="option"/>
        <subject>
          <reference value="Patient/EduardElder"/>
          <display value="Eduard Elder"/>
        </subject>
        <payload>
          <contentString value="Stop screening"/>
        </payload>
        <reasonCode>
          <coding>
            <system value="http://cancerscreeningcds.github.io/crcsm-cds/CodeSystem/plan-definition-action-reason-code-system"/>
            <code value="ageover86"/>
            <display value="Age over 86 years"/>
          </coding>
        </reasonCode>
      </CommunicationRequest>
    </resource>
  </entry>
</Bundle>