<?xml version="1.0" encoding="UTF-8"?>

<Bundle xmlns="http://hl7.org/fhir">
  <id value="PrimaryScreeningDecision_IsaacBrown"/>
  <type value="collection"/>
  <entry>
    <fullUrl value="http://cancerscreeningcds.github.io/crcsm-cds/CarePlan/116"/>
    <resource>
      <CarePlan>
        <id value="116"/>
        <text>
          <status value="generated"/><div xmlns="http://www.w3.org/1999/xhtml"><a name="CarePlan_116"> </a><p class="res-header-id"><b>Generated Narrative: CarePlan 116</b></p><a name="116"> </a><a name="hc116"> </a><a name="116-en-US"> </a><p><b>instantiatesCanonical</b>: <a href="PlanDefinition-PrimaryScreeningDecision.html">Primary Screening Decision</a></p><p><b>status</b>: Draft</p><p><b>intent</b>: Proposal</p><p><b>subject</b>: <a href="Bundle-IsaacBrown.html#Patient_IsaacBrown">Isaac Brown</a></p><p><b>created</b>: 2024-12-10 00:00:00+0000</p><h3>Activities</h3><table class="grid"><tr><td style="display: none">-</td><td><b>Reference</b></td></tr><tr><td style="display: none">*</td><td><a href="Bundle-PrimaryScreeningDecision_IsaacBrown.html#RequestGroup_117">Bundle: type = collection</a></td></tr></table></div>
        </text>
        <instantiatesCanonical value="http://cancerscreeningcds.github.io/crcsm-cds/PlanDefinition/PrimaryScreeningDecision"/>
        <status value="draft"/>
        <intent value="proposal"/>
        <subject>
          <reference value="Patient/IsaacBrown"/>
          <display value="Isaac Brown"/>
        </subject>
        <created value="2024-12-10T00:00:00.0Z"/>
        <activity>
          <reference>
            <reference value="RequestGroup/117"/>
          </reference>
        </activity>
      </CarePlan>
    </resource>
  </entry>
  <entry>
    <fullUrl value="http://cancerscreeningcds.github.io/crcsm-cds/RequestGroup/117"/>
    <resource>
      <RequestGroup>
        <id value="117"/>
        <text>
          <status value="generated"/><div xmlns="http://www.w3.org/1999/xhtml"><a name="RequestGroup_117"> </a><p class="res-header-id"><b>Generated Narrative: RequestGroup 117</b></p><a name="117"> </a><a name="hc117"> </a><a name="117-en-US"> </a><p><b>instantiatesCanonical</b>: <a href="PlanDefinition-PrimaryScreeningDecision.html">Primary Screening Decision</a></p><p><b>status</b>: Draft</p><p><b>intent</b>: Proposal</p><p><b>subject</b>: <a href="Bundle-IsaacBrown.html#Patient_IsaacBrown">Isaac Brown</a></p><blockquote><p><b>action</b></p><blockquote><p><b>id</b></p>IBDIncreasedRisk</blockquote><p><b>title</b>: IBD surveillance per specialist recommendations</p><p><b>description</b>: Start colonoscopy surveillance 8-10 years after disease onset.

Repeat colonoscopy every 1-5 years based on GI specialist recommendations.</p><h3>Documentations</h3><table class="grid"><tr><td style="display: none">-</td><td><b>Type</b></td><td><b>Label</b></td><td><b>Display</b></td><td><b>Citation</b></td></tr><tr><td style="display: none">*</td><td>Citation</td><td>ACG Crohn's Disease (2018)</td><td>ACG Clinical Guideline: Management of Crohn's Disease in Adults</td><td><div><p>Lichtenstein, G.R., et al. (2018). ACG Clinical Guideline: Management of Crohn's Disease in Adults. American Journal of Gastroenterology, 113(4), 481-517. https://doi.org/10.1038/ajg.2018.27</p>
</div></td></tr><tr><td style="display: none">*</td><td>Citation</td><td>ACG Ulcerative Colitis (2019)</td><td>ACG Clinical Guideline: Ulcerative Colitis in Adults</td><td><div><p>Rubin, D. T., et al. (2019). ACG Clinical Guideline: Ulcerative Colitis in Adults. The American journal of gastroenterology, 114(3), 384-413. https://doi.org/10.14309/ajg.0000000000000152</p>
</div></td></tr><tr><td style="display: none">*</td><td>Citation</td><td>AGA Inflammatory Bowel Disease (2021)</td><td>AGA Clinical Practice Update on Endoscopic Surveillance and Management of Colorectal Dysplasia in Inflammatory Bowel Diseases: Expert Review</td><td><div><p>Murthy, S. K., et al. (2021). AGA Clinical Practice Update on Endoscopic Surveillance and Management of Colorectal Dysplasia in Inflammatory Bowel Diseases: Expert Review. Gastroenterology, 161(3), 1043-1051.e4. https://doi.org/10.1053/j.gastro.2021.05.063</p>
</div></td></tr></table><p><b>resource</b>: <a href="Bundle-PrimaryScreeningDecision_IsaacBrown.html#ServiceRequest_118">Bundle: type = collection</a></p></blockquote></div>
        </text>
        <instantiatesCanonical value="http://cancerscreeningcds.github.io/crcsm-cds/PlanDefinition/PrimaryScreeningDecision"/>
        <status value="draft"/>
        <intent value="proposal"/>
        <subject>
          <reference value="Patient/IsaacBrown"/>
          <display value="Isaac Brown"/>
        </subject>
        <action id="IBDIncreasedRisk">
          <title value="IBD surveillance per specialist recommendations"/>
          <description value="Start colonoscopy surveillance 8-10 years after disease onset.&#xA;&#xA;Repeat colonoscopy every 1-5 years based on GI specialist recommendations."/>
          <documentation>
            <type value="citation"/>
            <label value="ACG Crohn's Disease (2018)"/>
            <display value="ACG Clinical Guideline: Management of Crohn's Disease in Adults"/>
            <citation value="Lichtenstein, G.R., et al. (2018). ACG Clinical Guideline: Management of Crohn's Disease in Adults. American Journal of Gastroenterology, 113(4), 481-517. https://doi.org/10.1038/ajg.2018.27"/>
          </documentation>
          <documentation>
            <type value="citation"/>
            <label value="ACG Ulcerative Colitis (2019)"/>
            <display value="ACG Clinical Guideline: Ulcerative Colitis in Adults"/>
            <citation value="Rubin, D. T., et al. (2019). ACG Clinical Guideline: Ulcerative Colitis in Adults. The American journal of gastroenterology, 114(3), 384-413. https://doi.org/10.14309/ajg.0000000000000152"/>
          </documentation>
          <documentation>
            <type value="citation"/>
            <label value="AGA Inflammatory Bowel Disease (2021)"/>
            <display value="AGA Clinical Practice Update on Endoscopic Surveillance and Management of Colorectal Dysplasia in Inflammatory Bowel Diseases: Expert Review"/>
            <citation value="Murthy, S. K., et al. (2021). AGA Clinical Practice Update on Endoscopic Surveillance and Management of Colorectal Dysplasia in Inflammatory Bowel Diseases: Expert Review. Gastroenterology, 161(3), 1043-1051.e4. https://doi.org/10.1053/j.gastro.2021.05.063"/>
          </documentation>
          <resource>
            <reference value="ServiceRequest/118"/>
          </resource>
        </action>
      </RequestGroup>
    </resource>
  </entry>
  <entry>
    <fullUrl value="http://cancerscreeningcds.github.io/crcsm-cds/ServiceRequest/118"/>
    <resource>
      <ServiceRequest>
        <id value="118"/>
        <text>
          <status value="generated"/><div xmlns="http://www.w3.org/1999/xhtml"><a name="ServiceRequest_118"> </a><p class="res-header-id"><b>Generated Narrative: ServiceRequest 118</b></p><a name="118"> </a><a name="hc118"> </a><a name="118-en-US"> </a><p><b>basedOn</b>: <a href="ActivityDefinition-ColorectalCancerScreeningServiceRequest.html">Colorectal Cancer Screening Service Request</a></p><p><b>status</b>: option</p><p><b>intent</b>: Proposal</p><p><b>code</b>: <span title="Codes:{http://snomed.info/sct 452071000124102}">Surveillance for colorectal cancer (regime/therapy)</span></p><p><b>subject</b>: <a href="Bundle-IsaacBrown.html#Patient_IsaacBrown">Isaac Brown</a></p><p><b>reasonCode</b>: <span title="Codes:{http://snomed.info/sct 24526004}">Inflammatory bowel disease (disorder)</span></p></div>
        </text>
        <basedOn>
          <reference value="http://cancerscreeningcds.github.io/crcsm-cds/ActivityDefinition/ColorectalCancerScreeningServiceRequest"/>
        </basedOn>
        <status value="option"/>
        <intent value="proposal"/>
        <code>
          <coding>
            <system value="http://snomed.info/sct"/>
            <code value="452071000124102"/>
            <display value="Surveillance for colorectal cancer (regime/therapy)"/>
          </coding>
        </code>
        <subject>
          <reference value="Patient/IsaacBrown"/>
          <display value="Isaac Brown"/>
        </subject>
        <reasonCode>
          <coding>
            <system value="http://snomed.info/sct"/>
            <code value="24526004"/>
            <display value="Inflammatory bowel disease (disorder)"/>
          </coding>
        </reasonCode>
      </ServiceRequest>
    </resource>
  </entry>
</Bundle>