{
  "resourceType" : "Bundle",
  "id" : "PrimaryScreeningDecision_EduardElder",
  "type" : "collection",
  "entry" : [{
    "fullUrl" : "http://cancerscreeningcds.github.io/crcsm-cds/CarePlan/91",
    "resource" : {
      "resourceType" : "CarePlan",
      "id" : "91",
      "text" : {
        "status" : "generated",
        "div" : "<div xmlns=\"http://www.w3.org/1999/xhtml\"><a name=\"CarePlan_91\"> </a><p class=\"res-header-id\"><b>Generated Narrative: CarePlan 91</b></p><a name=\"91\"> </a><a name=\"hc91\"> </a><a name=\"91-en-US\"> </a><p><b>instantiatesCanonical</b>: <a href=\"PlanDefinition-PrimaryScreeningDecision.html\">Primary Screening Decision</a></p><p><b>status</b>: Draft</p><p><b>intent</b>: Proposal</p><p><b>subject</b>: <a href=\"Bundle-EduardElder.html#Patient_EduardElder\">Eduard Elder</a></p><p><b>created</b>: 2024-12-10 00:00:00+0000</p><h3>Activities</h3><table class=\"grid\"><tr><td style=\"display: none\">-</td><td><b>Reference</b></td></tr><tr><td style=\"display: none\">*</td><td><a href=\"Bundle-PrimaryScreeningDecision_EduardElder.html#RequestGroup_92\">Bundle: type = collection</a></td></tr></table></div>"
      },
      "instantiatesCanonical" : ["http://cancerscreeningcds.github.io/crcsm-cds/PlanDefinition/PrimaryScreeningDecision"],
      "status" : "draft",
      "intent" : "proposal",
      "subject" : {
        "reference" : "Patient/EduardElder",
        "display" : "Eduard Elder"
      },
      "created" : "2024-12-10T00:00:00.0Z",
      "activity" : [{
        "reference" : {
          "reference" : "RequestGroup/92"
        }
      }]
    }
  },
  {
    "fullUrl" : "http://cancerscreeningcds.github.io/crcsm-cds/RequestGroup/92",
    "resource" : {
      "resourceType" : "RequestGroup",
      "id" : "92",
      "text" : {
        "status" : "generated",
        "div" : "<div xmlns=\"http://www.w3.org/1999/xhtml\"><a name=\"RequestGroup_92\"> </a><p class=\"res-header-id\"><b>Generated Narrative: RequestGroup 92</b></p><a name=\"92\"> </a><a name=\"hc92\"> </a><a name=\"92-en-US\"> </a><p><b>instantiatesCanonical</b>: <a href=\"PlanDefinition-PrimaryScreeningDecision.html\">Primary Screening Decision</a></p><p><b>status</b>: Draft</p><p><b>intent</b>: Proposal</p><p><b>subject</b>: <a href=\"Bundle-EduardElder.html#Patient_EduardElder\">Eduard Elder</a></p><blockquote><p><b>action</b></p><blockquote><p><b>id</b></p>StopScreeningAge</blockquote><p><b>title</b>: Stop screening</p><p><b>description</b>: Evidence is lacking on benefits and harms of colorectal cancer screening for individuals aged 86 and older. Competing causes of mortality likely preclude survival benefit that would outweigh the harms of screening.</p><p><b>resource</b>: <a href=\"Bundle-PrimaryScreeningDecision_EduardElder.html#CommunicationRequest_93\">Bundle: type = collection</a></p></blockquote></div>"
      },
      "instantiatesCanonical" : ["http://cancerscreeningcds.github.io/crcsm-cds/PlanDefinition/PrimaryScreeningDecision"],
      "status" : "draft",
      "intent" : "proposal",
      "subject" : {
        "reference" : "Patient/EduardElder",
        "display" : "Eduard Elder"
      },
      "action" : [{
        "id" : "StopScreeningAge",
        "title" : "Stop screening",
        "description" : "Evidence is lacking on benefits and harms of colorectal cancer screening for individuals aged 86 and older. Competing causes of mortality likely preclude survival benefit that would outweigh the harms of screening.",
        "resource" : {
          "reference" : "CommunicationRequest/93"
        }
      }]
    }
  },
  {
    "fullUrl" : "http://cancerscreeningcds.github.io/crcsm-cds/CommunicationRequest/93",
    "resource" : {
      "resourceType" : "CommunicationRequest",
      "id" : "93",
      "text" : {
        "status" : "generated",
        "div" : "<div xmlns=\"http://www.w3.org/1999/xhtml\"><a name=\"CommunicationRequest_93\"> </a><p class=\"res-header-id\"><b>Generated Narrative: CommunicationRequest 93</b></p><a name=\"93\"> </a><a name=\"hc93\"> </a><a name=\"93-en-US\"> </a><p><b>basedOn</b>: <a href=\"ActivityDefinition-CommunicateRecommendationStopScreening.html\">Communicate Recommendation to Stop Screening</a></p><p><b>status</b>: option</p><p><b>subject</b>: <a href=\"Bundle-EduardElder.html#Patient_EduardElder\">Eduard Elder</a></p><h3>Payloads</h3><table class=\"grid\"><tr><td style=\"display: none\">-</td><td><b>Content[x]</b></td></tr><tr><td style=\"display: none\">*</td><td>Stop screening</td></tr></table><p><b>reasonCode</b>: <span title=\"Codes:{http://cancerscreeningcds.github.io/crcsm-cds/CodeSystem/plan-definition-action-reason-code-system ageover86}\">Age over 86 years</span></p></div>"
      },
      "basedOn" : [{
        "reference" : "http://cancerscreeningcds.github.io/crcsm-cds/ActivityDefinition/CommunicateRecommendationStopScreening"
      }],
      "status" : "option",
      "subject" : {
        "reference" : "Patient/EduardElder",
        "display" : "Eduard Elder"
      },
      "payload" : [{
        "contentString" : "Stop screening"
      }],
      "reasonCode" : [{
        "coding" : [{
          "system" : "http://cancerscreeningcds.github.io/crcsm-cds/CodeSystem/plan-definition-action-reason-code-system",
          "code" : "ageover86",
          "display" : "Age over 86 years"
        }]
      }]
    }
  }]
}