{
  "resourceType" : "Bundle",
  "id" : "IncreasedRiskExclusions_FannyFamiglietti",
  "type" : "collection",
  "entry" : [{
    "fullUrl" : "http://cancerscreeningcds.github.io/crcsm-cds/CarePlan/175",
    "resource" : {
      "resourceType" : "CarePlan",
      "id" : "175",
      "text" : {
        "status" : "generated",
        "div" : "<div xmlns=\"http://www.w3.org/1999/xhtml\"><a name=\"CarePlan_175\"> </a><p class=\"res-header-id\"><b>Generated Narrative: CarePlan 175</b></p><a name=\"175\"> </a><a name=\"hc175\"> </a><a name=\"175-en-US\"> </a><p><b>instantiatesCanonical</b>: <a href=\"PlanDefinition-flow-IncreasedRiskExclusions.html\">Increased Risk Exclusions</a></p><p><b>status</b>: Draft</p><p><b>intent</b>: Proposal</p><p><b>subject</b>: <a href=\"Bundle-FannyFamiglietti.html#Patient_FannyFamiglietti\">Fanny Famiglietti</a></p><p><b>created</b>: 2024-12-10 00:00:00+0000</p><h3>Activities</h3><table class=\"grid\"><tr><td style=\"display: none\">-</td><td><b>Reference</b></td></tr><tr><td style=\"display: none\">*</td><td><a href=\"Bundle-IncreasedRiskExclusions_FannyFamiglietti.html#RequestGroup_176\">Bundle: type = collection</a></td></tr></table></div>"
      },
      "instantiatesCanonical" : ["http://cancerscreeningcds.github.io/crcsm-cds/PlanDefinition/flow-IncreasedRiskExclusions"],
      "status" : "draft",
      "intent" : "proposal",
      "subject" : {
        "reference" : "Patient/FannyFamiglietti",
        "display" : "Fanny Famiglietti"
      },
      "created" : "2024-12-10T00:00:00.0Z",
      "activity" : [{
        "reference" : {
          "reference" : "RequestGroup/176"
        }
      }]
    }
  },
  {
    "fullUrl" : "http://cancerscreeningcds.github.io/crcsm-cds/RequestGroup/176",
    "resource" : {
      "resourceType" : "RequestGroup",
      "id" : "176",
      "text" : {
        "status" : "generated",
        "div" : "<div xmlns=\"http://www.w3.org/1999/xhtml\"><a name=\"RequestGroup_176\"> </a><p class=\"res-header-id\"><b>Generated Narrative: RequestGroup 176</b></p><a name=\"176\"> </a><a name=\"hc176\"> </a><a name=\"176-en-US\"> </a><p><b>instantiatesCanonical</b>: <a href=\"PlanDefinition-flow-IncreasedRiskExclusions.html\">Increased Risk Exclusions</a></p><p><b>status</b>: Draft</p><p><b>intent</b>: Proposal</p><p><b>subject</b>: <a href=\"Bundle-FannyFamiglietti.html#Patient_FannyFamiglietti\">Fanny Famiglietti</a></p><blockquote><p><b>action</b></p><blockquote><p><b>id</b></p>FamilyHistoryIncreasedRisk</blockquote><p><b>title</b>: Family history increased risk screening/surveillance</p><p><b>description</b>: For patients with a single first-degree relative (mother, father, full sibling, child) with colorectal cancer or an advanced polyp(s):\n* If relative diagnosed at &gt;= 60 years:\n    * Start screening at 40 years old. Tests and intervals are as per average risk screening recommendations.\n* If relative diagnosed at &lt; 60 years old:\n    * Start screening 10 years before relative's age at diagnosis or age 40, whichever is earlier. Repeat colonoscopy every 5 years.\n    * If no significant neoplasia appears by age 60 years, can offer expanding the interval between colonoscopies.\n\nFor patients with 2 or more first-degree relatives with colorectal cancer or an advanced polyp:\n* Start screening colonoscopy 10 years before the reatives' youngest age at diagnosis or age 40, whichever is earlier. Repeat colonoscopy every 5 years.\n\nPatients with a history of potentially precancerous polyps should follow shortest interval between recommendations above and recommendations based on colonoscopy findings.</p><h3>Documentations</h3><table class=\"grid\"><tr><td style=\"display: none\">-</td><td><b>Type</b></td><td><b>Label</b></td><td><b>Display</b></td><td><b>Citation</b></td></tr><tr><td style=\"display: none\">*</td><td>Citation</td><td>USMSTF (2017)</td><td>Colorectal Cancer Screening: Recommendations for Physicians and Patients From the U.S. Multi-Society Task Force on Colorectal Cancer</td><td><div><p>Rex, D. K., et al. (2017). Colorectal Cancer Screening: Recommendations for Physicians and Patients From the U.S. Multi-Society Task Force on Colorectal Cancer. Gastroenterology, 153(1), 307-323. https://doi.org/10.1053/j.gastro.2017.05.013</p>\n</div></td></tr><tr><td style=\"display: none\">*</td><td>Citation</td><td>ACG Average Risk (2021)</td><td>ACG Clinical Guidelines: Colorectal Cancer Screening 2021</td><td><div><p>Shaukat, A., et al. (2021). ACG Clinical Guidelines: Colorectal Cancer Screening 2021. American Journal of Gastroenterology, 116(3), 458-479. https://doi.org/10.14309/ajg.0000000000001122</p>\n</div></td></tr><tr><td style=\"display: none\">*</td><td>Citation</td><td>USMSTF Follow-Up After Colonoscopy and Polypectomy (2020)</td><td>Recommendations for Follow-Up After Colonoscopy and Polypectomy: A Consensus Update by the US Multi-Society Task Force on Colorectal Cancer</td><td><div><p>Gupta, S., et al. (2020). Recommendations for Follow-Up After Colonoscopy and Polypectomy: A Consensus Update by the US Multi-Society Task Force on Colorectal Cancer. Gastroenterology, 158(4), 1131–1153.e5. https://doi.org/10.1053/j.gastro.2019.10.026</p>\n</div></td></tr></table><p><b>resource</b>: <a href=\"Bundle-IncreasedRiskExclusions_FannyFamiglietti.html#ServiceRequest_177\">Bundle: type = collection</a></p></blockquote></div>"
      },
      "instantiatesCanonical" : ["http://cancerscreeningcds.github.io/crcsm-cds/PlanDefinition/flow-IncreasedRiskExclusions"],
      "status" : "draft",
      "intent" : "proposal",
      "subject" : {
        "reference" : "Patient/FannyFamiglietti",
        "display" : "Fanny Famiglietti"
      },
      "action" : [{
        "id" : "FamilyHistoryIncreasedRisk",
        "title" : "Family history increased risk screening/surveillance",
        "description" : "For patients with a single first-degree relative (mother, father, full sibling, child) with colorectal cancer or an advanced polyp(s):\n* If relative diagnosed at >= 60 years:\n    * Start screening at 40 years old. Tests and intervals are as per average risk screening recommendations.\n* If relative diagnosed at < 60 years old:\n    * Start screening 10 years before relative's age at diagnosis or age 40, whichever is earlier. Repeat colonoscopy every 5 years.\n    * If no significant neoplasia appears by age 60 years, can offer expanding the interval between colonoscopies.\n\nFor patients with 2 or more first-degree relatives with colorectal cancer or an advanced polyp:\n* Start screening colonoscopy 10 years before the reatives' youngest age at diagnosis or age 40, whichever is earlier. Repeat colonoscopy every 5 years.\n\nPatients with a history of potentially precancerous polyps should follow shortest interval between recommendations above and recommendations based on colonoscopy findings.",
        "documentation" : [{
          "type" : "citation",
          "label" : "USMSTF (2017)",
          "display" : "Colorectal Cancer Screening: Recommendations for Physicians and Patients From the U.S. Multi-Society Task Force on Colorectal Cancer",
          "citation" : "Rex, D. K., et al. (2017). Colorectal Cancer Screening: Recommendations for Physicians and Patients From the U.S. Multi-Society Task Force on Colorectal Cancer. Gastroenterology, 153(1), 307-323. https://doi.org/10.1053/j.gastro.2017.05.013"
        },
        {
          "type" : "citation",
          "label" : "ACG Average Risk (2021)",
          "display" : "ACG Clinical Guidelines: Colorectal Cancer Screening 2021",
          "citation" : "Shaukat, A., et al. (2021). ACG Clinical Guidelines: Colorectal Cancer Screening 2021. American Journal of Gastroenterology, 116(3), 458-479. https://doi.org/10.14309/ajg.0000000000001122"
        },
        {
          "type" : "citation",
          "label" : "USMSTF Follow-Up After Colonoscopy and Polypectomy (2020)",
          "display" : "Recommendations for Follow-Up After Colonoscopy and Polypectomy: A Consensus Update by the US Multi-Society Task Force on Colorectal Cancer",
          "citation" : "Gupta, S., et al. (2020). Recommendations for Follow-Up After Colonoscopy and Polypectomy: A Consensus Update by the US Multi-Society Task Force on Colorectal Cancer. Gastroenterology, 158(4), 1131–1153.e5. https://doi.org/10.1053/j.gastro.2019.10.026"
        }],
        "resource" : {
          "reference" : "ServiceRequest/177"
        }
      }]
    }
  },
  {
    "fullUrl" : "http://cancerscreeningcds.github.io/crcsm-cds/ServiceRequest/177",
    "resource" : {
      "resourceType" : "ServiceRequest",
      "id" : "177",
      "text" : {
        "status" : "generated",
        "div" : "<div xmlns=\"http://www.w3.org/1999/xhtml\"><a name=\"ServiceRequest_177\"> </a><p class=\"res-header-id\"><b>Generated Narrative: ServiceRequest 177</b></p><a name=\"177\"> </a><a name=\"hc177\"> </a><a name=\"177-en-US\"> </a><p><b>basedOn</b>: <a href=\"ActivityDefinition-ColorectalCancerScreeningServiceRequest.html\">Colorectal Cancer Screening Service Request</a></p><p><b>status</b>: option</p><p><b>intent</b>: Proposal</p><p><b>code</b>: <span title=\"Codes:{http://cancerscreeningcds.github.io/crcsm-cds/CodeSystem/plan-definition-action-code-system increasedriskscreening}\">Increased risk screening for colorectal cancer</span></p><p><b>subject</b>: <a href=\"Bundle-FannyFamiglietti.html#Patient_FannyFamiglietti\">Fanny Famiglietti</a></p><p><b>reasonCode</b>: <span title=\"Codes:{http://snomed.info/sct 1421000119104}\">Family history of colorectal cancer (situation)</span></p></div>"
      },
      "basedOn" : [{
        "reference" : "http://cancerscreeningcds.github.io/crcsm-cds/ActivityDefinition/ColorectalCancerScreeningServiceRequest"
      }],
      "status" : "option",
      "intent" : "proposal",
      "code" : {
        "coding" : [{
          "system" : "http://cancerscreeningcds.github.io/crcsm-cds/CodeSystem/plan-definition-action-code-system",
          "code" : "increasedriskscreening",
          "display" : "Increased risk screening for colorectal cancer"
        }]
      },
      "subject" : {
        "reference" : "Patient/FannyFamiglietti",
        "display" : "Fanny Famiglietti"
      },
      "reasonCode" : [{
        "coding" : [{
          "system" : "http://snomed.info/sct",
          "code" : "1421000119104",
          "display" : "Family history of colorectal cancer (situation)"
        }]
      }]
    }
  }]
}