{
  "resourceType" : "Bundle",
  "id" : "FollowUp_eve-lastTestColonoscopy_no_eve-lastTestStool_yes_eve-inconclusiveStoolTest_no_eve-abnormalStoolTest_yes_act-FollowUpColonoscopy",
  "type" : "collection",
  "entry" : [{
    "fullUrl" : "http://cancerscreeningcds.github.io/crcsm-cds/CarePlan/157",
    "resource" : {
      "resourceType" : "CarePlan",
      "id" : "157",
      "text" : {
        "status" : "generated",
        "div" : "<div xmlns=\"http://www.w3.org/1999/xhtml\"><a name=\"CarePlan_157\"> </a><p class=\"res-header-id\"><b>Generated Narrative: CarePlan 157</b></p><a name=\"157\"> </a><a name=\"hc157\"> </a><a name=\"157-en-US\"> </a><p><b>instantiatesCanonical</b>: <a href=\"PlanDefinition-flow-FollowUp.html\">Follow Up</a></p><p><b>status</b>: Draft</p><p><b>intent</b>: Proposal</p><p><b>subject</b>: <a href=\"Bundle-eve-lastTestColonoscopy_no_eve-lastTestStool_yes_eve-inconclusiveStoolTest_no_eve-abnormalStoolTest_yes_act-FollowUpColonoscopy.html#Patient_378c410f-f86b-4484-936e-611a5c0c98dd\">Joanne Smith</a></p><p><b>created</b>: 2024-12-10 00:00:00+0000</p><h3>Activities</h3><table class=\"grid\"><tr><td style=\"display: none\">-</td><td><b>Reference</b></td></tr><tr><td style=\"display: none\">*</td><td><a href=\"Bundle-DecisionToScreen_eve-Age86AndOlder_no_eve-AgeOver76_yes_act-SelectivelyOfferScreening__eve-LifeExp10_no_eve-riskFactors_yes_act-incRiskEligible.html#RequestGroup_158\">Bundle: type = collection</a></td></tr></table></div>"
      },
      "instantiatesCanonical" : ["http://cancerscreeningcds.github.io/crcsm-cds/PlanDefinition/flow-FollowUp"],
      "status" : "draft",
      "intent" : "proposal",
      "subject" : {
        "reference" : "Patient/378c410f-f86b-4484-936e-611a5c0c98dd",
        "display" : "Joanne Smith"
      },
      "created" : "2024-12-10T00:00:00.0Z",
      "activity" : [{
        "reference" : {
          "reference" : "RequestGroup/158"
        }
      }]
    }
  },
  {
    "fullUrl" : "http://cancerscreeningcds.github.io/crcsm-cds/RequestGroup/158",
    "resource" : {
      "resourceType" : "RequestGroup",
      "id" : "158",
      "text" : {
        "status" : "extensions",
        "div" : "<div xmlns=\"http://www.w3.org/1999/xhtml\"><a name=\"RequestGroup_158\"> </a><p class=\"res-header-id\"><b>Generated Narrative: RequestGroup 158</b></p><a name=\"158\"> </a><a name=\"hc158\"> </a><a name=\"158-en-US\"> </a><p><b>instantiatesCanonical</b>: <a href=\"PlanDefinition-flow-FollowUp.html\">Follow Up</a></p><p><b>status</b>: Draft</p><p><b>intent</b>: Proposal</p><p><b>subject</b>: <a href=\"Bundle-eve-lastTestColonoscopy_no_eve-lastTestStool_yes_eve-inconclusiveStoolTest_no_eve-abnormalStoolTest_yes_act-FollowUpColonoscopy.html#Patient_378c410f-f86b-4484-936e-611a5c0c98dd\">Joanne Smith</a></p><blockquote><p><b>action</b></p><blockquote><p><b>id</b></p>FollowupStoolAbnormalResult</blockquote><p><b>io/crcsm-cds/StructureDefinition/csm-recommendation-flag</b>: <span title=\"Codes:{http://cancerscreeningcds.github.io/crcsm-cds/CodeSystem/recommendation-flag-code-system due}\">Due</span></p><p><b>title</b>: Order follow-up colonoscopy due to abnormal stool result</p><p><b>description</b>: Order follow-up colonoscopy.\n\nPositive stool-based tests or abnormal findings require follow-up with colonoscopy for the screening benefits to be achieved.</p><p><b>code</b>: <span title=\"Codes:{http://loinc.org 18746-8}\">Colonoscopy study</span></p><h3>Documentations</h3><table class=\"grid\"><tr><td style=\"display: none\">-</td><td><b>Type</b></td><td><b>Label</b></td><td><b>Display</b></td><td><b>Citation</b></td><td><b>Url</b></td></tr><tr><td style=\"display: none\">*</td><td>Citation</td><td>USPSTF (2021)</td><td>Screening for Colorectal Cancer: US Preventive Services Task Force Recommendation Statement</td><td><div><p>US Preventive Services Task Force. Screening for Colorectal Cancer: US Preventive Services Task Force Recommendation Statement. JAMA. Published online May 18, 2021.</p>\n</div></td><td><a href=\"https://www.uspreventiveservicestaskforce.org/uspstf/recommendation/colorectal-cancer-screening\">https://www.uspreventiveservicestaskforce.org/uspstf/recommendation/colorectal-cancer-screening</a></td></tr></table><p><b>timing</b>: Events: 2024-10-01 14:30:00+0000 </p><p><b>resource</b>: <a href=\"Bundle-FollowUp_eve-lastTestColonoscopy_no_eve-lastTestStool_yes_eve-inconclusiveStoolTest_no_eve-abnormalStoolTest_yes_act-FollowUpColonoscopy.html#ServiceRequest_159\">Bundle: type = collection</a></p></blockquote></div>"
      },
      "instantiatesCanonical" : ["http://cancerscreeningcds.github.io/crcsm-cds/PlanDefinition/flow-FollowUp"],
      "status" : "draft",
      "intent" : "proposal",
      "subject" : {
        "reference" : "Patient/378c410f-f86b-4484-936e-611a5c0c98dd",
        "display" : "Joanne Smith"
      },
      "action" : [{
        "id" : "FollowupStoolAbnormalResult",
        "extension" : [{
          "url" : "http://cancerscreeningcds.github.io/crcsm-cds/StructureDefinition/csm-recommendation-flag",
          "valueCodeableConcept" : {
            "coding" : [{
              "system" : "http://cancerscreeningcds.github.io/crcsm-cds/CodeSystem/recommendation-flag-code-system",
              "code" : "due",
              "display" : "Due"
            }]
          }
        }],
        "title" : "Order follow-up colonoscopy due to abnormal stool result",
        "description" : "Order follow-up colonoscopy.\n\nPositive stool-based tests or abnormal findings require follow-up with colonoscopy for the screening benefits to be achieved.",
        "code" : [{
          "coding" : [{
            "system" : "http://loinc.org",
            "code" : "18746-8",
            "display" : "Colonoscopy study"
          }]
        }],
        "documentation" : [{
          "type" : "citation",
          "label" : "USPSTF (2021)",
          "display" : "Screening for Colorectal Cancer: US Preventive Services Task Force Recommendation Statement",
          "citation" : "US Preventive Services Task Force. Screening for Colorectal Cancer: US Preventive Services Task Force Recommendation Statement. JAMA. Published online May 18, 2021.",
          "url" : "https://www.uspreventiveservicestaskforce.org/uspstf/recommendation/colorectal-cancer-screening"
        }],
        "timingTiming" : {
          "event" : ["2024-10-01T14:30:00.000+00:00"]
        },
        "resource" : {
          "reference" : "ServiceRequest/159"
        }
      }]
    }
  },
  {
    "fullUrl" : "http://cancerscreeningcds.github.io/crcsm-cds/ServiceRequest/159",
    "resource" : {
      "resourceType" : "ServiceRequest",
      "id" : "159",
      "text" : {
        "status" : "generated",
        "div" : "<div xmlns=\"http://www.w3.org/1999/xhtml\"><a name=\"ServiceRequest_159\"> </a><p class=\"res-header-id\"><b>Generated Narrative: ServiceRequest 159</b></p><a name=\"159\"> </a><a name=\"hc159\"> </a><a name=\"159-en-US\"> </a><p><b>basedOn</b>: <a href=\"ActivityDefinition-ColorectalCancerScreeningServiceRequest.html\">Colorectal Cancer Screening Service Request</a></p><p><b>status</b>: option</p><p><b>intent</b>: Proposal</p><p><b>code</b>: <span title=\"Codes:{http://loinc.org 18746-8}\">Colonoscopy study</span></p><p><b>subject</b>: <a href=\"Bundle-eve-lastTestColonoscopy_no_eve-lastTestStool_yes_eve-inconclusiveStoolTest_no_eve-abnormalStoolTest_yes_act-FollowUpColonoscopy.html#Patient_378c410f-f86b-4484-936e-611a5c0c98dd\">Joanne Smith</a></p><p><b>occurrence</b>: 2024-10-01 14:30:00+0000</p><p><b>reasonCode</b>: <span title=\"Codes:{http://cancerscreeningcds.github.io/crcsm-cds/CodeSystem/plan-definition-action-reason-code-system positiveabnormalscreening}\">Positive or abnormal non-colonoscopy screening</span></p></div>"
      },
      "basedOn" : [{
        "reference" : "http://cancerscreeningcds.github.io/crcsm-cds/ActivityDefinition/ColorectalCancerScreeningServiceRequest"
      }],
      "status" : "option",
      "intent" : "proposal",
      "code" : {
        "coding" : [{
          "system" : "http://loinc.org",
          "code" : "18746-8",
          "display" : "Colonoscopy study"
        }]
      },
      "subject" : {
        "reference" : "Patient/378c410f-f86b-4484-936e-611a5c0c98dd",
        "display" : "Joanne Smith"
      },
      "occurrenceDateTime" : "2024-10-01T14:30:00.000+00:00",
      "reasonCode" : [{
        "coding" : [{
          "system" : "http://cancerscreeningcds.github.io/crcsm-cds/CodeSystem/plan-definition-action-reason-code-system",
          "code" : "positiveabnormalscreening",
          "display" : "Positive or abnormal non-colonoscopy screening"
        }]
      }]
    }
  }]
}