{
  "resourceType" : "Bundle",
  "id" : "FollowUp_eve-lastTestColonoscopy_no_eve-lastTestStool_no_eve-lastTestFlexSig_no_eve-lastTestCTC_yes_eve-inconclusiveCTColonography_no_eve-abnormalCTColonography_yes_act-FollowUpColonoscopy",
  "type" : "collection",
  "entry" : [{
    "fullUrl" : "http://cancerscreeningcds.github.io/crcsm-cds/CarePlan/144",
    "resource" : {
      "resourceType" : "CarePlan",
      "id" : "144",
      "text" : {
        "status" : "generated",
        "div" : "<div xmlns=\"http://www.w3.org/1999/xhtml\"><a name=\"CarePlan_144\"> </a><p class=\"res-header-id\"><b>Generated Narrative: CarePlan 144</b></p><a name=\"144\"> </a><a name=\"hc144\"> </a><a name=\"144-en-US\"> </a><p><b>instantiatesCanonical</b>: <a href=\"PlanDefinition-flow-FollowUp.html\">Follow Up</a></p><p><b>status</b>: Draft</p><p><b>intent</b>: Proposal</p><p><b>subject</b>: <a href=\"Bundle-eve-lastTestColonoscopy_no_eve-lastTestStool_no_eve-lastTestFlexSig_no_eve-lastTestCTC_yes_eve-inconclusiveCTColonography_no_eve-abnormalCTColonography_yes_act-FollowUpColonoscopy.html#Patient_815436b1-c975-4eb7-86d6-256a8141068d\">Joanne Smith</a></p><p><b>created</b>: 2024-12-10 00:00:00+0000</p><h3>Activities</h3><table class=\"grid\"><tr><td style=\"display: none\">-</td><td><b>Reference</b></td></tr><tr><td style=\"display: none\">*</td><td><a href=\"Bundle-DecisionToScreen_eve-Age86AndOlder_no_eve-AgeOver76_no_eve-LifeExp10_no_eve-riskFactors_yes_act-incRiskEligible.html#RequestGroup_145\">Bundle: type = collection</a></td></tr></table></div>"
      },
      "instantiatesCanonical" : ["http://cancerscreeningcds.github.io/crcsm-cds/PlanDefinition/flow-FollowUp"],
      "status" : "draft",
      "intent" : "proposal",
      "subject" : {
        "reference" : "Patient/815436b1-c975-4eb7-86d6-256a8141068d",
        "display" : "Joanne Smith"
      },
      "created" : "2024-12-10T00:00:00.0Z",
      "activity" : [{
        "reference" : {
          "reference" : "RequestGroup/145"
        }
      }]
    }
  },
  {
    "fullUrl" : "http://cancerscreeningcds.github.io/crcsm-cds/RequestGroup/145",
    "resource" : {
      "resourceType" : "RequestGroup",
      "id" : "145",
      "text" : {
        "status" : "extensions",
        "div" : "<div xmlns=\"http://www.w3.org/1999/xhtml\"><a name=\"RequestGroup_145\"> </a><p class=\"res-header-id\"><b>Generated Narrative: RequestGroup 145</b></p><a name=\"145\"> </a><a name=\"hc145\"> </a><a name=\"145-en-US\"> </a><p><b>instantiatesCanonical</b>: <a href=\"PlanDefinition-flow-FollowUp.html\">Follow Up</a></p><p><b>status</b>: Draft</p><p><b>intent</b>: Proposal</p><p><b>subject</b>: <a href=\"Bundle-eve-lastTestColonoscopy_no_eve-lastTestStool_no_eve-lastTestFlexSig_no_eve-lastTestCTC_yes_eve-inconclusiveCTColonography_no_eve-abnormalCTColonography_yes_act-FollowUpColonoscopy.html#Patient_815436b1-c975-4eb7-86d6-256a8141068d\">Joanne Smith</a></p><blockquote><p><b>action</b></p><blockquote><p><b>id</b></p>FollowupCTCAbnormalResult</blockquote><p><b>io/crcsm-cds/StructureDefinition/csm-recommendation-flag</b>: <span title=\"Codes:{http://cancerscreeningcds.github.io/crcsm-cds/CodeSystem/recommendation-flag-code-system due}\">Due</span></p><p><b>title</b>: Order follow-up colonoscopy due to abnormal CTC result</p><p><b>description</b>: Order follow-up colonoscopy.\n\nAbnormal findings identified by CT colonography require follow-up with colonoscopy for the screening benefits to be achieved.</p><p><b>code</b>: <span title=\"Codes:{http://loinc.org 18746-8}\">Colonoscopy study</span></p><h3>Documentations</h3><table class=\"grid\"><tr><td style=\"display: none\">-</td><td><b>Type</b></td><td><b>Label</b></td><td><b>Display</b></td><td><b>Citation</b></td><td><b>Url</b></td></tr><tr><td style=\"display: none\">*</td><td>Citation</td><td>USPSTF (2021)</td><td>Screening for Colorectal Cancer: US Preventive Services Task Force Recommendation Statement</td><td><div><p>US Preventive Services Task Force. Screening for Colorectal Cancer: US Preventive Services Task Force Recommendation Statement. JAMA. Published online May 18, 2021.</p>\n</div></td><td><a href=\"https://www.uspreventiveservicestaskforce.org/uspstf/recommendation/colorectal-cancer-screening\">https://www.uspreventiveservicestaskforce.org/uspstf/recommendation/colorectal-cancer-screening</a></td></tr></table><p><b>timing</b>: Events: 2024-10-01 14:30:00+0000 </p><p><b>resource</b>: <a href=\"Bundle-DecisionToScreen_eve-Age86AndOlder_no_eve-AgeOver76_no_eve-LifeExp10_no_eve-riskFactors_yes_act-incRiskEligible.html#ServiceRequest_146\">Bundle: type = collection</a></p></blockquote></div>"
      },
      "instantiatesCanonical" : ["http://cancerscreeningcds.github.io/crcsm-cds/PlanDefinition/flow-FollowUp"],
      "status" : "draft",
      "intent" : "proposal",
      "subject" : {
        "reference" : "Patient/815436b1-c975-4eb7-86d6-256a8141068d",
        "display" : "Joanne Smith"
      },
      "action" : [{
        "id" : "FollowupCTCAbnormalResult",
        "extension" : [{
          "url" : "http://cancerscreeningcds.github.io/crcsm-cds/StructureDefinition/csm-recommendation-flag",
          "valueCodeableConcept" : {
            "coding" : [{
              "system" : "http://cancerscreeningcds.github.io/crcsm-cds/CodeSystem/recommendation-flag-code-system",
              "code" : "due",
              "display" : "Due"
            }]
          }
        }],
        "title" : "Order follow-up colonoscopy due to abnormal CTC result",
        "description" : "Order follow-up colonoscopy.\n\nAbnormal findings identified by CT colonography require follow-up with colonoscopy for the screening benefits to be achieved.",
        "code" : [{
          "coding" : [{
            "system" : "http://loinc.org",
            "code" : "18746-8",
            "display" : "Colonoscopy study"
          }]
        }],
        "documentation" : [{
          "type" : "citation",
          "label" : "USPSTF (2021)",
          "display" : "Screening for Colorectal Cancer: US Preventive Services Task Force Recommendation Statement",
          "citation" : "US Preventive Services Task Force. Screening for Colorectal Cancer: US Preventive Services Task Force Recommendation Statement. JAMA. Published online May 18, 2021.",
          "url" : "https://www.uspreventiveservicestaskforce.org/uspstf/recommendation/colorectal-cancer-screening"
        }],
        "timingTiming" : {
          "event" : ["2024-10-01T14:30:00.000+00:00"]
        },
        "resource" : {
          "reference" : "ServiceRequest/146"
        }
      }]
    }
  },
  {
    "fullUrl" : "http://cancerscreeningcds.github.io/crcsm-cds/ServiceRequest/146",
    "resource" : {
      "resourceType" : "ServiceRequest",
      "id" : "146",
      "text" : {
        "status" : "generated",
        "div" : "<div xmlns=\"http://www.w3.org/1999/xhtml\"><a name=\"ServiceRequest_146\"> </a><p class=\"res-header-id\"><b>Generated Narrative: ServiceRequest 146</b></p><a name=\"146\"> </a><a name=\"hc146\"> </a><a name=\"146-en-US\"> </a><p><b>basedOn</b>: <a href=\"ActivityDefinition-ColorectalCancerScreeningServiceRequest.html\">Colorectal Cancer Screening Service Request</a></p><p><b>status</b>: option</p><p><b>intent</b>: Proposal</p><p><b>code</b>: <span title=\"Codes:{http://loinc.org 18746-8}\">Colonoscopy study</span></p><p><b>subject</b>: <a href=\"Bundle-eve-lastTestColonoscopy_no_eve-lastTestStool_no_eve-lastTestFlexSig_no_eve-lastTestCTC_yes_eve-inconclusiveCTColonography_no_eve-abnormalCTColonography_yes_act-FollowUpColonoscopy.html#Patient_815436b1-c975-4eb7-86d6-256a8141068d\">Joanne Smith</a></p><p><b>occurrence</b>: 2024-10-01 14:30:00+0000</p><p><b>reasonCode</b>: <span title=\"Codes:{http://cancerscreeningcds.github.io/crcsm-cds/CodeSystem/plan-definition-action-reason-code-system positiveabnormalscreening}\">Positive or abnormal non-colonoscopy screening</span></p></div>"
      },
      "basedOn" : [{
        "reference" : "http://cancerscreeningcds.github.io/crcsm-cds/ActivityDefinition/ColorectalCancerScreeningServiceRequest"
      }],
      "status" : "option",
      "intent" : "proposal",
      "code" : {
        "coding" : [{
          "system" : "http://loinc.org",
          "code" : "18746-8",
          "display" : "Colonoscopy study"
        }]
      },
      "subject" : {
        "reference" : "Patient/815436b1-c975-4eb7-86d6-256a8141068d",
        "display" : "Joanne Smith"
      },
      "occurrenceDateTime" : "2024-10-01T14:30:00.000+00:00",
      "reasonCode" : [{
        "coding" : [{
          "system" : "http://cancerscreeningcds.github.io/crcsm-cds/CodeSystem/plan-definition-action-reason-code-system",
          "code" : "positiveabnormalscreening",
          "display" : "Positive or abnormal non-colonoscopy screening"
        }]
      }]
    }
  }]
}