<?xml version="1.0" encoding="UTF-8"?>

<Bundle xmlns="http://hl7.org/fhir">
  <id value="ScreeningEligible_eve-HxTotalColectomy_yes_end-1"/>
  <type value="collection"/>
  <entry>
    <fullUrl value="http://cancerscreeningcds.github.io/crcsm-cds/CarePlan/223"/>
    <resource>
      <CarePlan>
        <id value="223"/>
        <text>
          <status value="generated"/><div xmlns="http://www.w3.org/1999/xhtml"><a name="CarePlan_223"> </a><p class="res-header-id"><b>Generated Narrative: CarePlan 223</b></p><a name="223"> </a><a name="hc223"> </a><a name="223-en-US"> </a><p><b>instantiatesCanonical</b>: <a href="PlanDefinition-flow-ScreeningEligible.html">Screening Eligible</a></p><p><b>status</b>: Draft</p><p><b>intent</b>: Proposal</p><p><b>subject</b>: <a href="Bundle-eve-HxTotalColectomy_yes_end-1.html#Patient_4d30bbfc-b000-41b7-b72e-854d564eff74">Joanne Smith</a></p><p><b>created</b>: 2024-12-10 00:00:00+0000</p><h3>Activities</h3><table class="grid"><tr><td style="display: none">-</td><td><b>Reference</b></td></tr><tr><td style="display: none">*</td><td><a href="Bundle-ScreeningEligible_eve-HxTotalColectomy_yes_end-1.html#RequestGroup_224">Bundle: type = collection</a></td></tr></table></div>
        </text>
        <instantiatesCanonical value="http://cancerscreeningcds.github.io/crcsm-cds/PlanDefinition/flow-ScreeningEligible"/>
        <status value="draft"/>
        <intent value="proposal"/>
        <subject>
          <reference value="Patient/4d30bbfc-b000-41b7-b72e-854d564eff74"/>
          <display value="Joanne Smith"/>
        </subject>
        <created value="2024-12-10T00:00:00.0Z"/>
        <activity>
          <reference>
            <reference value="RequestGroup/224"/>
          </reference>
        </activity>
      </CarePlan>
    </resource>
  </entry>
  <entry>
    <fullUrl value="http://cancerscreeningcds.github.io/crcsm-cds/RequestGroup/224"/>
    <resource>
      <RequestGroup>
        <id value="224"/>
        <text>
          <status value="generated"/><div xmlns="http://www.w3.org/1999/xhtml"><a name="RequestGroup_224"> </a><p class="res-header-id"><b>Generated Narrative: RequestGroup 224</b></p><a name="224"> </a><a name="hc224"> </a><a name="224-en-US"> </a><p><b>instantiatesCanonical</b>: <a href="PlanDefinition-flow-ScreeningEligible.html">Screening Eligible</a></p><p><b>status</b>: Draft</p><p><b>intent</b>: Proposal</p><p><b>subject</b>: <a href="Bundle-eve-HxTotalColectomy_yes_end-1.html#Patient_4d30bbfc-b000-41b7-b72e-854d564eff74">Joanne Smith</a></p><blockquote><p><b>action</b></p><blockquote><p><b>id</b></p>Not Screening Eligible</blockquote><p><b>title</b>: Not Screening Eligible</p><p><b>description</b>: Patient is not eligible for screening</p><p><b>code</b>: <span title="Codes:{http://cancerscreeningcds.github.io/crcsm-cds/CodeSystem/plan-definition-action-code-system noteligible}">Not eligible for screening</span></p><p><b>resource</b>: <a href="Bundle-ScreeningEligible_eve-HxTotalColectomy_yes_end-1.html#CommunicationRequest_225">Bundle: type = collection</a></p></blockquote></div>
        </text>
        <instantiatesCanonical value="http://cancerscreeningcds.github.io/crcsm-cds/PlanDefinition/flow-ScreeningEligible"/>
        <status value="draft"/>
        <intent value="proposal"/>
        <subject>
          <reference value="Patient/4d30bbfc-b000-41b7-b72e-854d564eff74"/>
          <display value="Joanne Smith"/>
        </subject>
        <action id="Not Screening Eligible">
          <title value="Not Screening Eligible"/>
          <description value="Patient is not eligible for screening"/>
          <code>
            <coding>
              <system value="http://cancerscreeningcds.github.io/crcsm-cds/CodeSystem/plan-definition-action-code-system"/>
              <code value="noteligible"/>
              <display value="Not eligible for screening"/>
            </coding>
          </code>
          <resource>
            <reference value="CommunicationRequest/225"/>
          </resource>
        </action>
      </RequestGroup>
    </resource>
  </entry>
  <entry>
    <fullUrl value="http://cancerscreeningcds.github.io/crcsm-cds/CommunicationRequest/225"/>
    <resource>
      <CommunicationRequest>
        <id value="225"/>
        <text>
          <status value="generated"/><div xmlns="http://www.w3.org/1999/xhtml"><a name="CommunicationRequest_225"> </a><p class="res-header-id"><b>Generated Narrative: CommunicationRequest 225</b></p><a name="225"> </a><a name="hc225"> </a><a name="225-en-US"> </a><p><b>basedOn</b>: <a href="ActivityDefinition-CommunicateNotEligible.html">Communicate Not Eligible</a></p><p><b>status</b>: option</p><p><b>subject</b>: <a href="Bundle-eve-HxTotalColectomy_yes_end-1.html#Patient_4d30bbfc-b000-41b7-b72e-854d564eff74">Joanne Smith</a></p><h3>Payloads</h3><table class="grid"><tr><td style="display: none">-</td><td><b>Content[x]</b></td></tr><tr><td style="display: none">*</td><td>Not eligible for screening</td></tr></table><p><b>reasonCode</b>: <span title="Codes:{http://cancerscreeningcds.github.io/crcsm-cds/CodeSystem/plan-definition-action-reason-code-system totalcolectomy}">Total colectomy</span></p></div>
        </text>
        <basedOn>
          <reference value="http://cancerscreeningcds.github.io/crcsm-cds/ActivityDefinition/CommunicateNotEligible"/>
        </basedOn>
        <status value="option"/>
        <subject>
          <reference value="Patient/4d30bbfc-b000-41b7-b72e-854d564eff74"/>
          <display value="Joanne Smith"/>
        </subject>
        <payload>
          <contentString value="Not eligible for screening"/>
        </payload>
        <reasonCode>
          <coding>
            <system value="http://cancerscreeningcds.github.io/crcsm-cds/CodeSystem/plan-definition-action-reason-code-system"/>
            <code value="totalcolectomy"/>
            <display value="Total colectomy"/>
          </coding>
        </reasonCode>
      </CommunicationRequest>
    </resource>
  </entry>
</Bundle>