<?xml version="1.0" encoding="UTF-8"?>

<Bundle xmlns="http://hl7.org/fhir">
  <id value="eve-nextdueexists_no_act-determinedue"/>
  <type value="collection"/>
  <entry>
    <resource>
      <Patient>
        <id value="a446d002-cd90-4bb7-bb81-08a55ee0bae2"/>
        <text>
          <status value="generated"/><div xmlns="http://www.w3.org/1999/xhtml"><a name="Patient_a446d002-cd90-4bb7-bb81-08a55ee0bae2"> </a><p class="res-header-id"><b>Generated Narrative: Patient a446d002-cd90-4bb7-bb81-08a55ee0bae2</b></p><a name="a446d002-cd90-4bb7-bb81-08a55ee0bae2"> </a><a name="hca446d002-cd90-4bb7-bb81-08a55ee0bae2"> </a><a name="a446d002-cd90-4bb7-bb81-08a55ee0bae2-en-US"> </a><p style="border: 1px #661aff solid; background-color: #e6e6ff; padding: 10px;">Joanne Smith  Other, DoB: 1971-01-01</p><hr/><table class="grid"><tr><td style="background-color: #f3f5da" title="A code classifying the person's sex assigned at birth  as specified by the [Office of the National Coordinator for Health IT (ONC)](https://www.healthit.gov/newsroom/about-onc). This extension aligns with the C-CDA Birth Sex Observation (LOINC 76689-9)."><a href="http://hl7.org/fhir/us/core/STU3.1/StructureDefinition-us-core-birthsex.html">US Core Birth Sex Extension</a></td><td colspan="3">F</td></tr></table></div>
        </text>
        <extension url="http://hl7.org/fhir/us/core/StructureDefinition/us-core-birthsex">
          <valueCode value="F"/>
        </extension>
        <name>
          <family value="Smith"/>
          <given value="Joanne"/>
        </name>
        <gender value="other"/>
        <birthDate value="1971-01-01"/>
      </Patient>
    </resource>
  </entry>
  <entry>
    <resource>
      <CarePlan>
        <id value="7e9b7605-dbdc-480e-9b1f-d6b5ef9bd1cb"/>
        <text>
          <status value="generated"/><div xmlns="http://www.w3.org/1999/xhtml"><a name="CarePlan_7e9b7605-dbdc-480e-9b1f-d6b5ef9bd1cb"> </a><p class="res-header-id"><b>Generated Narrative: CarePlan 7e9b7605-dbdc-480e-9b1f-d6b5ef9bd1cb</b></p><a name="7e9b7605-dbdc-480e-9b1f-d6b5ef9bd1cb"> </a><a name="hc7e9b7605-dbdc-480e-9b1f-d6b5ef9bd1cb"> </a><a name="7e9b7605-dbdc-480e-9b1f-d6b5ef9bd1cb-en-US"> </a><p><b>status</b>: Active</p><p><b>category</b>: <span title="Codes:{http://snomed.info/sct 268548003}">Screening for malignant neoplasm of large intestine (procedure)</span></p><p><b>subject</b>: <a href="Bundle-eve-nextdueexists_no_act-determinedue.html#Patient_a446d002-cd90-4bb7-bb81-08a55ee0bae2">Bundle: type = collection</a></p><p><b>created</b>: 2024-06-01</p><h3>Activities</h3><table class="grid"><tr><td style="display: none">-</td><td><b>Reference</b></td></tr><tr><td style="display: none">*</td><td><a href="Bundle-eve-nextdueexists_no_act-determinedue.html#RequestGroup_RequestGroup-1">Bundle: type = collection</a></td></tr></table></div>
        </text>
        <status value="active"/>
        <category>
          <coding>
            <system value="http://snomed.info/sct"/>
            <code value="268548003"/>
            <display value="Screening for malignant neoplasm of large intestine (procedure)"/>
          </coding>
        </category>
        <subject>
          <reference value="Patient/a446d002-cd90-4bb7-bb81-08a55ee0bae2"/>
        </subject>
        <created value="2024-06-01"/>
        <activity>
          <reference>
            <reference value="RequestGroup/RequestGroup-1"/>
          </reference>
        </activity>
      </CarePlan>
    </resource>
  </entry>
  <entry>
    <resource>
      <RequestGroup>
        <id value="RequestGroup-1"/>
        <text>
          <status value="generated"/><div xmlns="http://www.w3.org/1999/xhtml"><a name="RequestGroup_RequestGroup-1"> </a><p class="res-header-id"><b>Generated Narrative: RequestGroup RequestGroup-1</b></p><a name="RequestGroup-1"> </a><a name="hcRequestGroup-1"> </a><a name="RequestGroup-1-en-US"> </a><p><b>status</b>: Active</p><p><b>intent</b>: Order</p><p><b>subject</b>: <a href="Bundle-eve-nextdueexists_no_act-determinedue.html#Patient_a446d002-cd90-4bb7-bb81-08a55ee0bae2">Bundle: type = collection</a></p></div>
        </text>
        <status value="active"/>
        <intent value="order"/>
        <subject>
          <reference value="Patient/a446d002-cd90-4bb7-bb81-08a55ee0bae2"/>
        </subject>
      </RequestGroup>
    </resource>
  </entry>
</Bundle>