{
  "resourceType" : "Bundle",
  "id" : "ScreeningEligible_eve-HxTotalColectomy_no_eve-ActiveCRC_yes_end-1",
  "type" : "collection",
  "entry" : [{
    "fullUrl" : "http://cancerscreeningcds.github.io/crcsm-cds/CarePlan/220",
    "resource" : {
      "resourceType" : "CarePlan",
      "id" : "220",
      "text" : {
        "status" : "generated",
        "div" : "<div xmlns=\"http://www.w3.org/1999/xhtml\"><a name=\"CarePlan_220\"> </a><p class=\"res-header-id\"><b>Generated Narrative: CarePlan 220</b></p><a name=\"220\"> </a><a name=\"hc220\"> </a><a name=\"220-en-US\"> </a><p><b>instantiatesCanonical</b>: <a href=\"PlanDefinition-flow-ScreeningEligible.html\">Screening Eligible</a></p><p><b>status</b>: Draft</p><p><b>intent</b>: Proposal</p><p><b>subject</b>: <a href=\"Bundle-eve-HxTotalColectomy_no_eve-ActiveCRC_yes_end-1.html#Patient_ea520880-c295-4eca-89aa-71e0e1bcfc86\">Joanne Smith</a></p><p><b>created</b>: 2024-12-10 00:00:00+0000</p><h3>Activities</h3><table class=\"grid\"><tr><td style=\"display: none\">-</td><td><b>Reference</b></td></tr><tr><td style=\"display: none\">*</td><td><a href=\"Bundle-ScreeningEligible_eve-HxTotalColectomy_no_eve-ActiveCRC_yes_end-1.html#RequestGroup_221\">Bundle: type = collection</a></td></tr></table></div>"
      },
      "instantiatesCanonical" : ["http://cancerscreeningcds.github.io/crcsm-cds/PlanDefinition/flow-ScreeningEligible"],
      "status" : "draft",
      "intent" : "proposal",
      "subject" : {
        "reference" : "Patient/ea520880-c295-4eca-89aa-71e0e1bcfc86",
        "display" : "Joanne Smith"
      },
      "created" : "2024-12-10T00:00:00.0Z",
      "activity" : [{
        "reference" : {
          "reference" : "RequestGroup/221"
        }
      }]
    }
  },
  {
    "fullUrl" : "http://cancerscreeningcds.github.io/crcsm-cds/RequestGroup/221",
    "resource" : {
      "resourceType" : "RequestGroup",
      "id" : "221",
      "text" : {
        "status" : "generated",
        "div" : "<div xmlns=\"http://www.w3.org/1999/xhtml\"><a name=\"RequestGroup_221\"> </a><p class=\"res-header-id\"><b>Generated Narrative: RequestGroup 221</b></p><a name=\"221\"> </a><a name=\"hc221\"> </a><a name=\"221-en-US\"> </a><p><b>instantiatesCanonical</b>: <a href=\"PlanDefinition-flow-ScreeningEligible.html\">Screening Eligible</a></p><p><b>status</b>: Draft</p><p><b>intent</b>: Proposal</p><p><b>subject</b>: <a href=\"Bundle-eve-HxTotalColectomy_no_eve-ActiveCRC_yes_end-1.html#Patient_ea520880-c295-4eca-89aa-71e0e1bcfc86\">Joanne Smith</a></p><blockquote><p><b>action</b></p><blockquote><p><b>id</b></p>Not Screening Eligible</blockquote><p><b>title</b>: Not Screening Eligible</p><p><b>description</b>: Patient is not eligible for screening</p><p><b>code</b>: <span title=\"Codes:{http://cancerscreeningcds.github.io/crcsm-cds/CodeSystem/plan-definition-action-code-system noteligible}\">Not eligible for screening</span></p><p><b>resource</b>: <a href=\"Bundle-ScreeningEligible_eve-HxTotalColectomy_no_eve-ActiveCRC_yes_end-1.html#CommunicationRequest_222\">Bundle: type = collection</a></p></blockquote></div>"
      },
      "instantiatesCanonical" : ["http://cancerscreeningcds.github.io/crcsm-cds/PlanDefinition/flow-ScreeningEligible"],
      "status" : "draft",
      "intent" : "proposal",
      "subject" : {
        "reference" : "Patient/ea520880-c295-4eca-89aa-71e0e1bcfc86",
        "display" : "Joanne Smith"
      },
      "action" : [{
        "id" : "Not Screening Eligible",
        "title" : "Not Screening Eligible",
        "description" : "Patient is not eligible for screening",
        "code" : [{
          "coding" : [{
            "system" : "http://cancerscreeningcds.github.io/crcsm-cds/CodeSystem/plan-definition-action-code-system",
            "code" : "noteligible",
            "display" : "Not eligible for screening"
          }]
        }],
        "resource" : {
          "reference" : "CommunicationRequest/222"
        }
      }]
    }
  },
  {
    "fullUrl" : "http://cancerscreeningcds.github.io/crcsm-cds/CommunicationRequest/222",
    "resource" : {
      "resourceType" : "CommunicationRequest",
      "id" : "222",
      "text" : {
        "status" : "generated",
        "div" : "<div xmlns=\"http://www.w3.org/1999/xhtml\"><a name=\"CommunicationRequest_222\"> </a><p class=\"res-header-id\"><b>Generated Narrative: CommunicationRequest 222</b></p><a name=\"222\"> </a><a name=\"hc222\"> </a><a name=\"222-en-US\"> </a><p><b>basedOn</b>: <a href=\"ActivityDefinition-CommunicateNotEligible.html\">Communicate Not Eligible</a></p><p><b>status</b>: option</p><p><b>subject</b>: <a href=\"Bundle-eve-HxTotalColectomy_no_eve-ActiveCRC_yes_end-1.html#Patient_ea520880-c295-4eca-89aa-71e0e1bcfc86\">Joanne Smith</a></p><h3>Payloads</h3><table class=\"grid\"><tr><td style=\"display: none\">-</td><td><b>Content[x]</b></td></tr><tr><td style=\"display: none\">*</td><td>Not eligible for screening</td></tr></table><p><b>reasonCode</b>: <span title=\"Codes:{http://cancerscreeningcds.github.io/crcsm-cds/CodeSystem/plan-definition-action-reason-code-system currentcolorectalcancer}\">Current colorectal cancer</span></p></div>"
      },
      "basedOn" : [{
        "reference" : "http://cancerscreeningcds.github.io/crcsm-cds/ActivityDefinition/CommunicateNotEligible"
      }],
      "status" : "option",
      "subject" : {
        "reference" : "Patient/ea520880-c295-4eca-89aa-71e0e1bcfc86",
        "display" : "Joanne Smith"
      },
      "payload" : [{
        "contentString" : "Not eligible for screening"
      }],
      "reasonCode" : [{
        "coding" : [{
          "system" : "http://cancerscreeningcds.github.io/crcsm-cds/CodeSystem/plan-definition-action-reason-code-system",
          "code" : "currentcolorectalcancer",
          "display" : "Current colorectal cancer"
        }]
      }]
    }
  }]
}