{
  "resourceType" : "Bundle",
  "id" : "FollowUp_OllieOncken",
  "type" : "collection",
  "entry" : [{
    "fullUrl" : "http://cancerscreeningcds.github.io/crcsm-cds/CarePlan/134",
    "resource" : {
      "resourceType" : "CarePlan",
      "id" : "134",
      "text" : {
        "status" : "generated",
        "div" : "<div xmlns=\"http://www.w3.org/1999/xhtml\"><a name=\"CarePlan_134\"> </a><p class=\"res-header-id\"><b>Generated Narrative: CarePlan 134</b></p><a name=\"134\"> </a><a name=\"hc134\"> </a><a name=\"134-en-US\"> </a><p><b>instantiatesCanonical</b>: <a href=\"PlanDefinition-flow-FollowUp.html\">Follow Up</a></p><p><b>status</b>: Draft</p><p><b>intent</b>: Proposal</p><p><b>subject</b>: <a href=\"Bundle-OllieOncken.html#Patient_OllieOncken\">Ollie Oncken</a></p><p><b>created</b>: 2024-12-10 00:00:00+0000</p><h3>Activities</h3><table class=\"grid\"><tr><td style=\"display: none\">-</td><td><b>Reference</b></td></tr><tr><td style=\"display: none\">*</td><td><a href=\"Bundle-DecisionToScreen_FannyFamiglietti.html#RequestGroup_135\">Bundle: type = collection</a></td></tr></table></div>"
      },
      "instantiatesCanonical" : ["http://cancerscreeningcds.github.io/crcsm-cds/PlanDefinition/flow-FollowUp"],
      "status" : "draft",
      "intent" : "proposal",
      "subject" : {
        "reference" : "Patient/OllieOncken",
        "display" : "Ollie Oncken"
      },
      "created" : "2024-12-10T00:00:00.0Z",
      "activity" : [{
        "reference" : {
          "reference" : "RequestGroup/135"
        }
      }]
    }
  },
  {
    "fullUrl" : "http://cancerscreeningcds.github.io/crcsm-cds/RequestGroup/135",
    "resource" : {
      "resourceType" : "RequestGroup",
      "id" : "135",
      "text" : {
        "status" : "extensions",
        "div" : "<div xmlns=\"http://www.w3.org/1999/xhtml\"><a name=\"RequestGroup_135\"> </a><p class=\"res-header-id\"><b>Generated Narrative: RequestGroup 135</b></p><a name=\"135\"> </a><a name=\"hc135\"> </a><a name=\"135-en-US\"> </a><p><b>instantiatesCanonical</b>: <a href=\"PlanDefinition-flow-FollowUp.html\">Follow Up</a></p><p><b>status</b>: Draft</p><p><b>intent</b>: Proposal</p><p><b>subject</b>: <a href=\"Bundle-OllieOncken.html#Patient_OllieOncken\">Ollie Oncken</a></p><blockquote><p><b>action</b></p><blockquote><p><b>id</b></p>FollowupColonoscopyCRCResult</blockquote><p><b>io/crcsm-cds/StructureDefinition/csm-recommendation-flag</b>: <span title=\"Codes:{http://cancerscreeningcds.github.io/crcsm-cds/CodeSystem/recommendation-flag-code-system due}\">Due</span></p><p><b>title</b>: Refer to Oncology</p><p><b>description</b>: Refer to Oncology for evaluation.</p><p><b>code</b>: <span title=\"Codes:{http://cancerscreeningcds.github.io/crcsm-cds/CodeSystem/plan-definition-action-code-system oncreferral}\">Oncologic referral</span></p><p><b>timing</b>: Events: 2024-12-02 </p><p><b>resource</b>: <a href=\"Bundle-DecisionToScreen_FannyFamiglietti.html#ServiceRequest_136\">Bundle: type = collection</a></p></blockquote></div>"
      },
      "instantiatesCanonical" : ["http://cancerscreeningcds.github.io/crcsm-cds/PlanDefinition/flow-FollowUp"],
      "status" : "draft",
      "intent" : "proposal",
      "subject" : {
        "reference" : "Patient/OllieOncken",
        "display" : "Ollie Oncken"
      },
      "action" : [{
        "id" : "FollowupColonoscopyCRCResult",
        "extension" : [{
          "url" : "http://cancerscreeningcds.github.io/crcsm-cds/StructureDefinition/csm-recommendation-flag",
          "valueCodeableConcept" : {
            "coding" : [{
              "system" : "http://cancerscreeningcds.github.io/crcsm-cds/CodeSystem/recommendation-flag-code-system",
              "code" : "due",
              "display" : "Due"
            }]
          }
        }],
        "title" : "Refer to Oncology",
        "description" : "Refer to Oncology for evaluation.",
        "code" : [{
          "coding" : [{
            "system" : "http://cancerscreeningcds.github.io/crcsm-cds/CodeSystem/plan-definition-action-code-system",
            "code" : "oncreferral",
            "display" : "Oncologic referral"
          }]
        }],
        "timingTiming" : {
          "event" : ["2024-12-02"]
        },
        "resource" : {
          "reference" : "ServiceRequest/136"
        }
      }]
    }
  },
  {
    "fullUrl" : "http://cancerscreeningcds.github.io/crcsm-cds/ServiceRequest/136",
    "resource" : {
      "resourceType" : "ServiceRequest",
      "id" : "136",
      "text" : {
        "status" : "generated",
        "div" : "<div xmlns=\"http://www.w3.org/1999/xhtml\"><a name=\"ServiceRequest_136\"> </a><p class=\"res-header-id\"><b>Generated Narrative: ServiceRequest 136</b></p><a name=\"136\"> </a><a name=\"hc136\"> </a><a name=\"136-en-US\"> </a><p><b>basedOn</b>: <a href=\"ActivityDefinition-ColorectalCancerScreeningServiceRequest.html\">Colorectal Cancer Screening Service Request</a></p><p><b>status</b>: option</p><p><b>intent</b>: Proposal</p><p><b>code</b>: <span title=\"Codes:{http://cancerscreeningcds.github.io/crcsm-cds/CodeSystem/plan-definition-action-code-system oncreferral}\">Oncologic referral</span></p><p><b>subject</b>: <a href=\"Bundle-OllieOncken.html#Patient_OllieOncken\">Ollie Oncken</a></p><p><b>occurrence</b>: 2024-12-02</p><p><b>reasonCode</b>: <span title=\"Codes:{http://cancerscreeningcds.github.io/crcsm-cds/CodeSystem/colonoscopy-result-observation-code-system crcfinding}\">Colorectal cancer finding</span></p></div>"
      },
      "basedOn" : [{
        "reference" : "http://cancerscreeningcds.github.io/crcsm-cds/ActivityDefinition/ColorectalCancerScreeningServiceRequest"
      }],
      "status" : "option",
      "intent" : "proposal",
      "code" : {
        "coding" : [{
          "system" : "http://cancerscreeningcds.github.io/crcsm-cds/CodeSystem/plan-definition-action-code-system",
          "code" : "oncreferral",
          "display" : "Oncologic referral"
        }]
      },
      "subject" : {
        "reference" : "Patient/OllieOncken",
        "display" : "Ollie Oncken"
      },
      "occurrenceDateTime" : "2024-12-02",
      "reasonCode" : [{
        "coding" : [{
          "system" : "http://cancerscreeningcds.github.io/crcsm-cds/CodeSystem/colonoscopy-result-observation-code-system",
          "code" : "crcfinding",
          "display" : "Colorectal cancer finding"
        }]
      }]
    }
  }]
}