{
  "resourceType" : "Bundle",
  "id" : "HighLevel_StellaParker",
  "type" : "collection",
  "entry" : [{
    "fullUrl" : "http://cancerscreeningcds.github.io/crcsm-cds/CarePlan/79",
    "resource" : {
      "resourceType" : "CarePlan",
      "id" : "79",
      "text" : {
        "status" : "generated",
        "div" : "<div xmlns=\"http://www.w3.org/1999/xhtml\"><a name=\"CarePlan_79\"> </a><p class=\"res-header-id\"><b>Generated Narrative: CarePlan 79</b></p><a name=\"79\"> </a><a name=\"hc79\"> </a><a name=\"79-en-US\"> </a><p><b>instantiatesCanonical</b>: <a href=\"PlanDefinition-HighLevel.html\">High Level Flow</a></p><p><b>status</b>: Draft</p><p><b>intent</b>: Proposal</p><p><b>subject</b>: <a href=\"Bundle-StellaParker.html#Patient_StellaParker\">Stella Parker</a></p><p><b>created</b>: 2024-12-10 00:00:00+0000</p><h3>Activities</h3><table class=\"grid\"><tr><td style=\"display: none\">-</td><td><b>Reference</b></td></tr><tr><td style=\"display: none\">*</td><td><a href=\"Bundle-HighLevel_StellaParker.html#RequestGroup_80\">Bundle: type = collection</a></td></tr></table></div>"
      },
      "instantiatesCanonical" : ["http://cancerscreeningcds.github.io/crcsm-cds/PlanDefinition/HighLevel"],
      "status" : "draft",
      "intent" : "proposal",
      "subject" : {
        "reference" : "Patient/StellaParker",
        "display" : "Stella Parker"
      },
      "created" : "2024-12-10T00:00:00.0Z",
      "activity" : [{
        "reference" : {
          "reference" : "RequestGroup/80"
        }
      }]
    }
  },
  {
    "fullUrl" : "http://cancerscreeningcds.github.io/crcsm-cds/RequestGroup/80",
    "resource" : {
      "resourceType" : "RequestGroup",
      "id" : "80",
      "text" : {
        "status" : "generated",
        "div" : "<div xmlns=\"http://www.w3.org/1999/xhtml\"><a name=\"RequestGroup_80\"> </a><p class=\"res-header-id\"><b>Generated Narrative: RequestGroup 80</b></p><a name=\"80\"> </a><a name=\"hc80\"> </a><a name=\"80-en-US\"> </a><p><b>instantiatesCanonical</b>: <a href=\"PlanDefinition-HighLevel.html\">High Level Flow</a></p><p><b>status</b>: Draft</p><p><b>intent</b>: Proposal</p><p><b>subject</b>: <a href=\"Bundle-StellaParker.html#Patient_StellaParker\">Stella Parker</a></p><blockquote><p><b>action</b></p><blockquote><p><b>id</b></p>82</blockquote><p><b>title</b>: Primary Screening Decision</p><p><b>description</b>: Primary Screening Decision pathway.</p><p><b>resource</b>: <a href=\"Bundle-HighLevel_StellaParker.html#CarePlan_83\">Bundle: type = collection</a></p></blockquote></div>"
      },
      "instantiatesCanonical" : ["http://cancerscreeningcds.github.io/crcsm-cds/PlanDefinition/HighLevel"],
      "status" : "draft",
      "intent" : "proposal",
      "subject" : {
        "reference" : "Patient/StellaParker",
        "display" : "Stella Parker"
      },
      "action" : [{
        "id" : "82",
        "title" : "Primary Screening Decision",
        "description" : "Primary Screening Decision pathway.",
        "resource" : {
          "reference" : "CarePlan/83"
        }
      }]
    }
  },
  {
    "fullUrl" : "http://cancerscreeningcds.github.io/crcsm-cds/CarePlan/83",
    "resource" : {
      "resourceType" : "CarePlan",
      "id" : "83",
      "text" : {
        "status" : "generated",
        "div" : "<div xmlns=\"http://www.w3.org/1999/xhtml\"><a name=\"CarePlan_83\"> </a><p class=\"res-header-id\"><b>Generated Narrative: CarePlan 83</b></p><a name=\"83\"> </a><a name=\"hc83\"> </a><a name=\"83-en-US\"> </a><p><b>instantiatesCanonical</b>: <a href=\"PlanDefinition-PrimaryScreeningDecision.html\">Primary Screening Decision</a></p><p><b>status</b>: option</p><p><b>intent</b>: Proposal</p><p><b>subject</b>: <a href=\"Bundle-StellaParker.html#Patient_StellaParker\">Stella Parker</a></p><p><b>created</b>: 2024-12-10 00:00:00+0000</p><h3>Activities</h3><table class=\"grid\"><tr><td style=\"display: none\">-</td><td><b>Reference</b></td></tr><tr><td style=\"display: none\">*</td><td><a href=\"Bundle-HighLevel_StellaParker.html#RequestGroup_84\">Bundle: type = collection</a></td></tr></table></div>"
      },
      "instantiatesCanonical" : ["http://cancerscreeningcds.github.io/crcsm-cds/PlanDefinition/PrimaryScreeningDecision"],
      "status" : "option",
      "intent" : "proposal",
      "subject" : {
        "reference" : "Patient/StellaParker",
        "display" : "Stella Parker"
      },
      "created" : "2024-12-10T00:00:00.0Z",
      "activity" : [{
        "reference" : {
          "reference" : "RequestGroup/84"
        }
      }]
    }
  },
  {
    "fullUrl" : "http://cancerscreeningcds.github.io/crcsm-cds/RequestGroup/84",
    "resource" : {
      "resourceType" : "RequestGroup",
      "id" : "84",
      "text" : {
        "status" : "generated",
        "div" : "<div xmlns=\"http://www.w3.org/1999/xhtml\"><a name=\"RequestGroup_84\"> </a><p class=\"res-header-id\"><b>Generated Narrative: RequestGroup 84</b></p><a name=\"84\"> </a><a name=\"hc84\"> </a><a name=\"84-en-US\"> </a><p><b>instantiatesCanonical</b>: <a href=\"PlanDefinition-PrimaryScreeningDecision.html\">Primary Screening Decision</a></p><p><b>status</b>: Draft</p><p><b>intent</b>: Proposal</p><p><b>subject</b>: <a href=\"Bundle-StellaParker.html#Patient_StellaParker\">Stella Parker</a></p><blockquote><p><b>action</b></p><blockquote><p><b>id</b></p>ContinueRoutineScreening</blockquote><p><b>title</b>: Continue routine screening</p><p><b>description</b>: Continue routine screening.\n\nScreening strategies and intervals recommended for average risk patients include:\n* Colonoscopy every 10 years\n* High-sensitivity gFOBT or FIT every year\n* sDNA-FIT every 1 to 3 years\n* CT colonography every 5 years\n* Flexible sigmoidoscopy every 5 years\n* Flexible sigmoidoscopy every 10 years + FIT every year</p><p><b>code</b>: <span title=\"Codes:{http://snomed.info/sct 268548003}\">Screening for malignant neoplasm of large intestine (procedure)</span></p><h3>Documentations</h3><table class=\"grid\"><tr><td style=\"display: none\">-</td><td><b>Type</b></td><td><b>Label</b></td><td><b>Display</b></td><td><b>Citation</b></td><td><b>Url</b></td></tr><tr><td style=\"display: none\">*</td><td>Citation</td><td>USPSTF (2021)</td><td>Screening for Colorectal Cancer: US Preventive Services Task Force Recommendation Statement</td><td><div><p>US Preventive Services Task Force. Screening for Colorectal Cancer: US Preventive Services Task Force Recommendation Statement. JAMA. Published online May 18, 2021.</p>\n</div></td><td><a href=\"https://www.uspreventiveservicestaskforce.org/uspstf/recommendation/colorectal-cancer-screening\">https://www.uspreventiveservicestaskforce.org/uspstf/recommendation/colorectal-cancer-screening</a></td></tr></table><p><b>timing</b>: Events: 2024-04-02 00:00:00+0000 , Once</p><p><b>resource</b>: <a href=\"Bundle-HighLevel_StellaParker.html#ServiceRequest_85\">Bundle: type = collection</a></p></blockquote></div>"
      },
      "instantiatesCanonical" : ["http://cancerscreeningcds.github.io/crcsm-cds/PlanDefinition/PrimaryScreeningDecision"],
      "status" : "draft",
      "intent" : "proposal",
      "subject" : {
        "reference" : "Patient/StellaParker",
        "display" : "Stella Parker"
      },
      "action" : [{
        "id" : "ContinueRoutineScreening",
        "title" : "Continue routine screening",
        "description" : "Continue routine screening.\n\nScreening strategies and intervals recommended for average risk patients include:\n* Colonoscopy every 10 years\n* High-sensitivity gFOBT or FIT every year\n* sDNA-FIT every 1 to 3 years\n* CT colonography every 5 years\n* Flexible sigmoidoscopy every 5 years\n* Flexible sigmoidoscopy every 10 years + FIT every year",
        "code" : [{
          "coding" : [{
            "system" : "http://snomed.info/sct",
            "code" : "268548003",
            "display" : "Screening for malignant neoplasm of large intestine (procedure)"
          }]
        }],
        "documentation" : [{
          "type" : "citation",
          "label" : "USPSTF (2021)",
          "display" : "Screening for Colorectal Cancer: US Preventive Services Task Force Recommendation Statement",
          "citation" : "US Preventive Services Task Force. Screening for Colorectal Cancer: US Preventive Services Task Force Recommendation Statement. JAMA. Published online May 18, 2021.",
          "url" : "https://www.uspreventiveservicestaskforce.org/uspstf/recommendation/colorectal-cancer-screening"
        }],
        "timingTiming" : {
          "event" : ["2024-04-02T00:00:00.000+00:00"],
          "repeat" : {
            "boundsPeriod" : {
              "start" : "2014-03-09"
            }
          }
        },
        "resource" : {
          "reference" : "ServiceRequest/85"
        }
      }]
    }
  },
  {
    "fullUrl" : "http://cancerscreeningcds.github.io/crcsm-cds/ServiceRequest/85",
    "resource" : {
      "resourceType" : "ServiceRequest",
      "id" : "85",
      "text" : {
        "status" : "generated",
        "div" : "<div xmlns=\"http://www.w3.org/1999/xhtml\"><a name=\"ServiceRequest_85\"> </a><p class=\"res-header-id\"><b>Generated Narrative: ServiceRequest 85</b></p><a name=\"85\"> </a><a name=\"hc85\"> </a><a name=\"85-en-US\"> </a><p><b>basedOn</b>: <a href=\"ActivityDefinition-ColorectalCancerScreeningServiceRequest.html\">Colorectal Cancer Screening Service Request</a></p><p><b>status</b>: option</p><p><b>intent</b>: Proposal</p><p><b>code</b>: <span title=\"Codes:{http://snomed.info/sct 268548003}\">Screening for malignant neoplasm of large intestine (procedure)</span></p><p><b>subject</b>: <a href=\"Bundle-StellaParker.html#Patient_StellaParker\">Stella Parker</a></p><p><b>occurrence</b>: 2024-04-02 00:00:00+0000</p><p><b>reasonCode</b>: <span title=\"Codes:{http://cancerscreeningcds.github.io/crcsm-cds/CodeSystem/plan-definition-action-reason-code-system USPSTFaveragerisk}\">USPSTF average risk</span></p></div>"
      },
      "basedOn" : [{
        "reference" : "http://cancerscreeningcds.github.io/crcsm-cds/ActivityDefinition/ColorectalCancerScreeningServiceRequest"
      }],
      "status" : "option",
      "intent" : "proposal",
      "code" : {
        "coding" : [{
          "system" : "http://snomed.info/sct",
          "code" : "268548003",
          "display" : "Screening for malignant neoplasm of large intestine (procedure)"
        }]
      },
      "subject" : {
        "reference" : "Patient/StellaParker",
        "display" : "Stella Parker"
      },
      "occurrenceDateTime" : "2024-04-02T00:00:00.000+00:00",
      "reasonCode" : [{
        "coding" : [{
          "system" : "http://cancerscreeningcds.github.io/crcsm-cds/CodeSystem/plan-definition-action-reason-code-system",
          "code" : "USPSTFaveragerisk",
          "display" : "USPSTF average risk"
        }]
      }]
    }
  }]
}