{
  "resourceType" : "Bundle",
  "id" : "IncreasedRiskExclusions_eve-HereditarySyndrome_yes_act-CRCHereditarySyndrome",
  "type" : "collection",
  "entry" : [{
    "fullUrl" : "http://cancerscreeningcds.github.io/crcsm-cds/CarePlan/205",
    "resource" : {
      "resourceType" : "CarePlan",
      "id" : "205",
      "text" : {
        "status" : "generated",
        "div" : "<div xmlns=\"http://www.w3.org/1999/xhtml\"><a name=\"CarePlan_205\"> </a><p class=\"res-header-id\"><b>Generated Narrative: CarePlan 205</b></p><a name=\"205\"> </a><a name=\"hc205\"> </a><a name=\"205-en-US\"> </a><p><b>instantiatesCanonical</b>: <a href=\"PlanDefinition-flow-IncreasedRiskExclusions.html\">Increased Risk Exclusions</a></p><p><b>status</b>: Draft</p><p><b>intent</b>: Proposal</p><p><b>subject</b>: <a href=\"Bundle-eve-HereditarySyndrome_yes_act-CRCHereditarySyndrome.html#Patient_9d8caaa1-eb7e-4f71-b5ac-d95a11298951\">Joanne Smith</a></p><p><b>created</b>: 2024-12-10 00:00:00+0000</p><h3>Activities</h3><table class=\"grid\"><tr><td style=\"display: none\">-</td><td><b>Reference</b></td></tr><tr><td style=\"display: none\">*</td><td><a href=\"Bundle-IncreasedRiskExclusions_eve-HereditarySyndrome_yes_act-CRCHereditarySyndrome.html#RequestGroup_206\">Bundle: type = collection</a></td></tr></table></div>"
      },
      "instantiatesCanonical" : ["http://cancerscreeningcds.github.io/crcsm-cds/PlanDefinition/flow-IncreasedRiskExclusions"],
      "status" : "draft",
      "intent" : "proposal",
      "subject" : {
        "reference" : "Patient/9d8caaa1-eb7e-4f71-b5ac-d95a11298951",
        "display" : "Joanne Smith"
      },
      "created" : "2024-12-10T00:00:00.0Z",
      "activity" : [{
        "reference" : {
          "reference" : "RequestGroup/206"
        }
      }]
    }
  },
  {
    "fullUrl" : "http://cancerscreeningcds.github.io/crcsm-cds/RequestGroup/206",
    "resource" : {
      "resourceType" : "RequestGroup",
      "id" : "206",
      "text" : {
        "status" : "generated",
        "div" : "<div xmlns=\"http://www.w3.org/1999/xhtml\"><a name=\"RequestGroup_206\"> </a><p class=\"res-header-id\"><b>Generated Narrative: RequestGroup 206</b></p><a name=\"206\"> </a><a name=\"hc206\"> </a><a name=\"206-en-US\"> </a><p><b>instantiatesCanonical</b>: <a href=\"PlanDefinition-flow-IncreasedRiskExclusions.html\">Increased Risk Exclusions</a></p><p><b>status</b>: Draft</p><p><b>intent</b>: Proposal</p><p><b>subject</b>: <a href=\"Bundle-eve-HereditarySyndrome_yes_act-CRCHereditarySyndrome.html#Patient_9d8caaa1-eb7e-4f71-b5ac-d95a11298951\">Joanne Smith</a></p><blockquote><p><b>action</b></p><blockquote><p><b>id</b></p>HereditarySyndromesSurveillance</blockquote><p><b>title</b>: Colorectal cancer surveillance per specialist recommendations</p><p><b>description</b>: Refer to GI specialist for colorectal cancer (and possibly additional cancers) surveillance recommendations.\n\nPatients with a hereditary cancer syndrome require specialized management and colonoscopy surveillance for colorectal cancer (as well as additional surveillance for other cancers). Recommendations on when to start surveillance and surveillance intervals vary according to the syndrome.</p><h3>Documentations</h3><table class=\"grid\"><tr><td style=\"display: none\">-</td><td><b>Type</b></td><td><b>Label</b></td><td><b>Display</b></td><td><b>Citation</b></td></tr><tr><td style=\"display: none\">*</td><td>Citation</td><td>ACG Hereditary Syndromes (2015)</td><td>ACG Clinical Guideline: Genetic Testing and Management of Hereditary Gastrointestinal Cancer Syndromes</td><td><div><p>Syngal, S., et al. (2015). ACG Clinical Guideline: Genetic Testing and Management of Hereditary Gastrointestinal Cancer Syndromes. American Journal of Gastroenterology 110(2):p 223-262. https://doi.org/10.1038/ajg.2014.435</p>\n</div></td></tr></table><p><b>resource</b>: <a href=\"Bundle-IncreasedRiskExclusions_eve-HereditarySyndrome_yes_act-CRCHereditarySyndrome.html#ServiceRequest_207\">Bundle: type = collection</a></p></blockquote></div>"
      },
      "instantiatesCanonical" : ["http://cancerscreeningcds.github.io/crcsm-cds/PlanDefinition/flow-IncreasedRiskExclusions"],
      "status" : "draft",
      "intent" : "proposal",
      "subject" : {
        "reference" : "Patient/9d8caaa1-eb7e-4f71-b5ac-d95a11298951",
        "display" : "Joanne Smith"
      },
      "action" : [{
        "id" : "HereditarySyndromesSurveillance",
        "title" : "Colorectal cancer surveillance per specialist recommendations",
        "description" : "Refer to GI specialist for colorectal cancer (and possibly additional cancers) surveillance recommendations.\n\nPatients with a hereditary cancer syndrome require specialized management and colonoscopy surveillance for colorectal cancer (as well as additional surveillance for other cancers). Recommendations on when to start surveillance and surveillance intervals vary according to the syndrome.",
        "documentation" : [{
          "type" : "citation",
          "label" : "ACG Hereditary Syndromes (2015)",
          "display" : "ACG Clinical Guideline: Genetic Testing and Management of Hereditary Gastrointestinal Cancer Syndromes",
          "citation" : "Syngal, S., et al. (2015). ACG Clinical Guideline: Genetic Testing and Management of Hereditary Gastrointestinal Cancer Syndromes. American Journal of Gastroenterology 110(2):p 223-262. https://doi.org/10.1038/ajg.2014.435"
        }],
        "resource" : {
          "reference" : "ServiceRequest/207"
        }
      }]
    }
  },
  {
    "fullUrl" : "http://cancerscreeningcds.github.io/crcsm-cds/ServiceRequest/207",
    "resource" : {
      "resourceType" : "ServiceRequest",
      "id" : "207",
      "text" : {
        "status" : "generated",
        "div" : "<div xmlns=\"http://www.w3.org/1999/xhtml\"><a name=\"ServiceRequest_207\"> </a><p class=\"res-header-id\"><b>Generated Narrative: ServiceRequest 207</b></p><a name=\"207\"> </a><a name=\"hc207\"> </a><a name=\"207-en-US\"> </a><p><b>basedOn</b>: <a href=\"ActivityDefinition-ColorectalCancerScreeningServiceRequest.html\">Colorectal Cancer Screening Service Request</a></p><p><b>status</b>: option</p><p><b>intent</b>: Proposal</p><p><b>code</b>: <span title=\"Codes:{http://snomed.info/sct 452071000124102}\">Surveillance for colorectal cancer (regime/therapy)</span></p><p><b>subject</b>: <a href=\"Bundle-eve-HereditarySyndrome_yes_act-CRCHereditarySyndrome.html#Patient_9d8caaa1-eb7e-4f71-b5ac-d95a11298951\">Joanne Smith</a></p><p><b>reasonCode</b>: <span title=\"Codes:{http://snomed.info/sct 699346009}\">Hereditary cancer-predisposing syndrome (disorder)</span></p></div>"
      },
      "basedOn" : [{
        "reference" : "http://cancerscreeningcds.github.io/crcsm-cds/ActivityDefinition/ColorectalCancerScreeningServiceRequest"
      }],
      "status" : "option",
      "intent" : "proposal",
      "code" : {
        "coding" : [{
          "system" : "http://snomed.info/sct",
          "code" : "452071000124102",
          "display" : "Surveillance for colorectal cancer (regime/therapy)"
        }]
      },
      "subject" : {
        "reference" : "Patient/9d8caaa1-eb7e-4f71-b5ac-d95a11298951",
        "display" : "Joanne Smith"
      },
      "reasonCode" : [{
        "coding" : [{
          "system" : "http://snomed.info/sct",
          "code" : "699346009",
          "display" : "Hereditary cancer-predisposing syndrome (disorder)"
        }]
      }]
    }
  }]
}