{
  "resourceType" : "Bundle",
  "id" : "DecisionToScreen_eve-Age86AndOlder_no_eve-AgeOver76_yes_act-SelectivelyOfferScreening__eve-LifeExp10_yes_act-sdmcontinuelifexp__eve-riskFactors_yes_act-incRiskEligible",
  "type" : "collection",
  "entry" : [{
    "fullUrl" : "http://cancerscreeningcds.github.io/crcsm-cds/CarePlan/165",
    "resource" : {
      "resourceType" : "CarePlan",
      "id" : "165",
      "text" : {
        "status" : "generated",
        "div" : "<div xmlns=\"http://www.w3.org/1999/xhtml\"><a name=\"CarePlan_165\"> </a><p class=\"res-header-id\"><b>Generated Narrative: CarePlan 165</b></p><a name=\"165\"> </a><a name=\"hc165\"> </a><a name=\"165-en-US\"> </a><p><b>instantiatesCanonical</b>: <a href=\"PlanDefinition-flow-DecisionToScreen.html\">Decision to Screen</a></p><p><b>status</b>: Draft</p><p><b>intent</b>: Proposal</p><p><b>subject</b>: <a href=\"Patient/db355280-cd6b-4cec-9bc2-6352888b0caa\">Joanne Smith</a></p><p><b>created</b>: 2024-12-10 00:00:00+0000</p><h3>Activities</h3><table class=\"grid\"><tr><td style=\"display: none\">-</td><td><b>Reference</b></td></tr><tr><td style=\"display: none\">*</td><td><a href=\"Bundle-DecisionToScreen_eve-Age86AndOlder_no_eve-AgeOver76_yes_act-SelectivelyOfferScreening__eve-LifeExp10_yes_act-sdmcontinuelifexp__eve-riskFactors_yes_act-incRiskEligible.html#RequestGroup_166\">Bundle: type = collection</a></td></tr></table></div>"
      },
      "instantiatesCanonical" : ["http://cancerscreeningcds.github.io/crcsm-cds/PlanDefinition/flow-DecisionToScreen"],
      "status" : "draft",
      "intent" : "proposal",
      "subject" : {
        "reference" : "Patient/db355280-cd6b-4cec-9bc2-6352888b0caa",
        "display" : "Joanne Smith"
      },
      "created" : "2024-12-10T00:00:00.0Z",
      "activity" : [{
        "reference" : {
          "reference" : "RequestGroup/166"
        }
      }]
    }
  },
  {
    "fullUrl" : "http://cancerscreeningcds.github.io/crcsm-cds/RequestGroup/166",
    "resource" : {
      "resourceType" : "RequestGroup",
      "id" : "166",
      "text" : {
        "status" : "generated",
        "div" : "<div xmlns=\"http://www.w3.org/1999/xhtml\"><a name=\"RequestGroup_166\"> </a><p class=\"res-header-id\"><b>Generated Narrative: RequestGroup 166</b></p><a name=\"166\"> </a><a name=\"hc166\"> </a><a name=\"166-en-US\"> </a><p><b>instantiatesCanonical</b>: <a href=\"PlanDefinition-flow-DecisionToScreen.html\">Decision to Screen</a></p><p><b>status</b>: Draft</p><p><b>intent</b>: Proposal</p><p><b>subject</b>: <a href=\"Patient/db355280-cd6b-4cec-9bc2-6352888b0caa\">Joanne Smith</a></p><blockquote><p><b>action</b></p><blockquote><p><b>id</b></p>SDMContinueScreeningAge</blockquote><p><b>title</b>: Selectively offer screening</p><p><b>description</b>: The USPSTF recommends that clinicians selectively offer screening for colorectal cancer in adults aged 76 to 85 years.</p><h3>Documentations</h3><table class=\"grid\"><tr><td style=\"display: none\">-</td><td><b>Type</b></td><td><b>Label</b></td><td><b>Display</b></td><td><b>Citation</b></td><td><b>Url</b></td></tr><tr><td style=\"display: none\">*</td><td>Citation</td><td>USPSTF (2021)</td><td>Screening for Colorectal Cancer: US Preventive Services Task Force Recommendation Statement</td><td><div><p>US Preventive Services Task Force. Screening for Colorectal Cancer: US Preventive Services Task Force Recommendation Statement. JAMA. Published online May 18, 2021.</p>\n</div></td><td><a href=\"https://www.uspreventiveservicestaskforce.org/uspstf/recommendation/colorectal-cancer-screening\">https://www.uspreventiveservicestaskforce.org/uspstf/recommendation/colorectal-cancer-screening</a></td></tr></table><p><b>resource</b>: <a href=\"Bundle-DecisionToScreen_eve-Age86AndOlder_no_eve-AgeOver76_yes_act-SelectivelyOfferScreening__eve-LifeExp10_yes_act-sdmcontinuelifexp__eve-riskFactors_yes_act-incRiskEligible.html#CommunicationRequest_167\">Bundle: type = collection</a></p></blockquote><blockquote><p><b>action</b></p><blockquote><p><b>id</b></p>SDMContinueScreeningLifeExp</blockquote><p><b>title</b>: Discuss decision to continue screening</p><p><b>description</b>: ACS advises that individuals should continue colorectal cancer screening as long as their overall health is good and they have a life expectancy of 10 years or more. Decision to continue screening in cases of limited life expectancy should be based on shared decision-making.</p><h3>Documentations</h3><table class=\"grid\"><tr><td style=\"display: none\">-</td><td><b>Type</b></td><td><b>Label</b></td><td><b>Display</b></td><td><b>Citation</b></td></tr><tr><td style=\"display: none\">*</td><td>Citation</td><td>ACS 2018</td><td>Colorectal cancer screening for average‐risk adults: 2018 guideline update from the American Cancer Society</td><td><div><p>Wolf, A. M. D., et al. (2018). Colorectal cancer screening for average‐risk adults: 2018 guideline update from the American Cancer Society. CA: A Cancer Journal for Clinicians, 68(4), 250–281. https://doi.org/10.3322/caac.21457</p>\n</div></td></tr></table><p><b>resource</b>: <a href=\"Bundle-DecisionToScreen_eve-Age86AndOlder_no_eve-AgeOver76_yes_act-SelectivelyOfferScreening__eve-LifeExp10_yes_act-sdmcontinuelifexp__eve-riskFactors_yes_act-incRiskEligible.html#CommunicationRequest_168\">Bundle: type = collection</a></p></blockquote><blockquote><p><b>action</b></p><blockquote><p><b>id</b></p>HereditarySyndromesSurveillance</blockquote><p><b>title</b>: Colorectal cancer surveillance per specialist recommendations</p><p><b>description</b>: Refer to GI specialist for colorectal cancer (and possibly additional cancers) surveillance recommendations.\n\nPatients with a hereditary cancer syndrome require specialized management and colonoscopy surveillance for colorectal cancer (as well as additional surveillance for other cancers). Recommendations on when to start surveillance and surveillance intervals vary according to the syndrome.</p><h3>Documentations</h3><table class=\"grid\"><tr><td style=\"display: none\">-</td><td><b>Type</b></td><td><b>Label</b></td><td><b>Display</b></td><td><b>Citation</b></td></tr><tr><td style=\"display: none\">*</td><td>Citation</td><td>ACG Hereditary Syndromes (2015)</td><td>ACG Clinical Guideline: Genetic Testing and Management of Hereditary Gastrointestinal Cancer Syndromes</td><td><div><p>Syngal, S., et al. (2015). ACG Clinical Guideline: Genetic Testing and Management of Hereditary Gastrointestinal Cancer Syndromes. American Journal of Gastroenterology 110(2):p 223-262. https://doi.org/10.1038/ajg.2014.435</p>\n</div></td></tr></table><p><b>resource</b>: <a href=\"Bundle-DecisionToScreen_eve-Age86AndOlder_no_eve-AgeOver76_yes_act-SelectivelyOfferScreening__eve-LifeExp10_yes_act-sdmcontinuelifexp__eve-riskFactors_yes_act-incRiskEligible.html#ServiceRequest_169\">Bundle: type = collection</a></p></blockquote></div>"
      },
      "instantiatesCanonical" : ["http://cancerscreeningcds.github.io/crcsm-cds/PlanDefinition/flow-DecisionToScreen"],
      "status" : "draft",
      "intent" : "proposal",
      "subject" : {
        "reference" : "Patient/db355280-cd6b-4cec-9bc2-6352888b0caa",
        "display" : "Joanne Smith"
      },
      "action" : [{
        "id" : "SDMContinueScreeningAge",
        "title" : "Selectively offer screening",
        "description" : "The USPSTF recommends that clinicians selectively offer screening for colorectal cancer in adults aged 76 to 85 years.",
        "documentation" : [{
          "type" : "citation",
          "label" : "USPSTF (2021)",
          "display" : "Screening for Colorectal Cancer: US Preventive Services Task Force Recommendation Statement",
          "citation" : "US Preventive Services Task Force. Screening for Colorectal Cancer: US Preventive Services Task Force Recommendation Statement. JAMA. Published online May 18, 2021.",
          "url" : "https://www.uspreventiveservicestaskforce.org/uspstf/recommendation/colorectal-cancer-screening"
        }],
        "resource" : {
          "reference" : "CommunicationRequest/167"
        }
      },
      {
        "id" : "SDMContinueScreeningLifeExp",
        "title" : "Discuss decision to continue screening",
        "description" : "ACS advises that individuals should continue colorectal cancer screening as long as their overall health is good and they have a life expectancy of 10 years or more. Decision to continue screening in cases of limited life expectancy should be based on shared decision-making.",
        "documentation" : [{
          "type" : "citation",
          "label" : "ACS 2018",
          "display" : "Colorectal cancer screening for average‐risk adults: 2018 guideline update from the American Cancer Society",
          "citation" : "Wolf, A. M. D., et al. (2018). Colorectal cancer screening for average‐risk adults: 2018 guideline update from the American Cancer Society. CA: A Cancer Journal for Clinicians, 68(4), 250–281. https://doi.org/10.3322/caac.21457"
        }],
        "resource" : {
          "reference" : "CommunicationRequest/168"
        }
      },
      {
        "id" : "HereditarySyndromesSurveillance",
        "title" : "Colorectal cancer surveillance per specialist recommendations",
        "description" : "Refer to GI specialist for colorectal cancer (and possibly additional cancers) surveillance recommendations.\n\nPatients with a hereditary cancer syndrome require specialized management and colonoscopy surveillance for colorectal cancer (as well as additional surveillance for other cancers). Recommendations on when to start surveillance and surveillance intervals vary according to the syndrome.",
        "documentation" : [{
          "type" : "citation",
          "label" : "ACG Hereditary Syndromes (2015)",
          "display" : "ACG Clinical Guideline: Genetic Testing and Management of Hereditary Gastrointestinal Cancer Syndromes",
          "citation" : "Syngal, S., et al. (2015). ACG Clinical Guideline: Genetic Testing and Management of Hereditary Gastrointestinal Cancer Syndromes. American Journal of Gastroenterology 110(2):p 223-262. https://doi.org/10.1038/ajg.2014.435"
        }],
        "resource" : {
          "reference" : "ServiceRequest/169"
        }
      }]
    }
  },
  {
    "fullUrl" : "http://cancerscreeningcds.github.io/crcsm-cds/CommunicationRequest/167",
    "resource" : {
      "resourceType" : "CommunicationRequest",
      "id" : "167",
      "text" : {
        "status" : "generated",
        "div" : "<div xmlns=\"http://www.w3.org/1999/xhtml\"><a name=\"CommunicationRequest_167\"> </a><p class=\"res-header-id\"><b>Generated Narrative: CommunicationRequest 167</b></p><a name=\"167\"> </a><a name=\"hc167\"> </a><a name=\"167-en-US\"> </a><p><b>basedOn</b>: <a href=\"ActivityDefinition-CommunicateSDMContinueScreening.html\">Communicate Shared Decision Making to Continue Screening</a></p><p><b>status</b>: option</p><p><b>subject</b>: <a href=\"Patient/db355280-cd6b-4cec-9bc2-6352888b0caa\">Joanne Smith</a></p><h3>Payloads</h3><table class=\"grid\"><tr><td style=\"display: none\">-</td><td><b>Content[x]</b></td></tr><tr><td style=\"display: none\">*</td><td>Shared decision making to continue screening</td></tr></table><p><b>reasonCode</b>: <span title=\"Codes:{http://cancerscreeningcds.github.io/crcsm-cds/CodeSystem/plan-definition-action-reason-code-system age76to86}\">Age 76 to 86 years</span></p></div>"
      },
      "basedOn" : [{
        "reference" : "http://cancerscreeningcds.github.io/crcsm-cds/ActivityDefinition/CommunicateSDMContinueScreening"
      }],
      "status" : "option",
      "subject" : {
        "reference" : "Patient/db355280-cd6b-4cec-9bc2-6352888b0caa",
        "display" : "Joanne Smith"
      },
      "payload" : [{
        "contentString" : "Shared decision making to continue screening"
      }],
      "reasonCode" : [{
        "coding" : [{
          "system" : "http://cancerscreeningcds.github.io/crcsm-cds/CodeSystem/plan-definition-action-reason-code-system",
          "code" : "age76to86",
          "display" : "Age 76 to 86 years"
        }]
      }]
    }
  },
  {
    "fullUrl" : "http://cancerscreeningcds.github.io/crcsm-cds/CommunicationRequest/168",
    "resource" : {
      "resourceType" : "CommunicationRequest",
      "id" : "168",
      "text" : {
        "status" : "generated",
        "div" : "<div xmlns=\"http://www.w3.org/1999/xhtml\"><a name=\"CommunicationRequest_168\"> </a><p class=\"res-header-id\"><b>Generated Narrative: CommunicationRequest 168</b></p><a name=\"168\"> </a><a name=\"hc168\"> </a><a name=\"168-en-US\"> </a><p><b>basedOn</b>: <a href=\"ActivityDefinition-CommunicateSDMContinueScreening.html\">Communicate Shared Decision Making to Continue Screening</a></p><p><b>status</b>: option</p><p><b>subject</b>: <a href=\"Patient/db355280-cd6b-4cec-9bc2-6352888b0caa\">Joanne Smith</a></p><h3>Payloads</h3><table class=\"grid\"><tr><td style=\"display: none\">-</td><td><b>Content[x]</b></td></tr><tr><td style=\"display: none\">*</td><td>Shared decision making to continue screening</td></tr></table><p><b>reasonCode</b>: <span title=\"Codes:{http://cancerscreeningcds.github.io/crcsm-cds/CodeSystem/plan-definition-action-reason-code-system lifeexp}\">Reduced life expectancy indicator</span></p></div>"
      },
      "basedOn" : [{
        "reference" : "http://cancerscreeningcds.github.io/crcsm-cds/ActivityDefinition/CommunicateSDMContinueScreening"
      }],
      "status" : "option",
      "subject" : {
        "reference" : "Patient/db355280-cd6b-4cec-9bc2-6352888b0caa",
        "display" : "Joanne Smith"
      },
      "payload" : [{
        "contentString" : "Shared decision making to continue screening"
      }],
      "reasonCode" : [{
        "coding" : [{
          "system" : "http://cancerscreeningcds.github.io/crcsm-cds/CodeSystem/plan-definition-action-reason-code-system",
          "code" : "lifeexp",
          "display" : "Reduced life expectancy indicator"
        }]
      }]
    }
  },
  {
    "fullUrl" : "http://cancerscreeningcds.github.io/crcsm-cds/ServiceRequest/169",
    "resource" : {
      "resourceType" : "ServiceRequest",
      "id" : "169",
      "text" : {
        "status" : "generated",
        "div" : "<div xmlns=\"http://www.w3.org/1999/xhtml\"><a name=\"ServiceRequest_169\"> </a><p class=\"res-header-id\"><b>Generated Narrative: ServiceRequest 169</b></p><a name=\"169\"> </a><a name=\"hc169\"> </a><a name=\"169-en-US\"> </a><p><b>basedOn</b>: <a href=\"ActivityDefinition-ColorectalCancerScreeningServiceRequest.html\">Colorectal Cancer Screening Service Request</a></p><p><b>status</b>: option</p><p><b>intent</b>: Proposal</p><p><b>code</b>: <span title=\"Codes:{http://snomed.info/sct 452071000124102}\">Surveillance for colorectal cancer (regime/therapy)</span></p><p><b>subject</b>: <a href=\"Patient/db355280-cd6b-4cec-9bc2-6352888b0caa\">Joanne Smith</a></p><p><b>reasonCode</b>: <span title=\"Codes:{http://snomed.info/sct 699346009}\">Hereditary cancer-predisposing syndrome (disorder)</span></p></div>"
      },
      "basedOn" : [{
        "reference" : "http://cancerscreeningcds.github.io/crcsm-cds/ActivityDefinition/ColorectalCancerScreeningServiceRequest"
      }],
      "status" : "option",
      "intent" : "proposal",
      "code" : {
        "coding" : [{
          "system" : "http://snomed.info/sct",
          "code" : "452071000124102",
          "display" : "Surveillance for colorectal cancer (regime/therapy)"
        }]
      },
      "subject" : {
        "reference" : "Patient/db355280-cd6b-4cec-9bc2-6352888b0caa",
        "display" : "Joanne Smith"
      },
      "reasonCode" : [{
        "coding" : [{
          "system" : "http://snomed.info/sct",
          "code" : "699346009",
          "display" : "Hereditary cancer-predisposing syndrome (disorder)"
        }]
      }]
    }
  }]
}