{
  "resourceType" : "Bundle",
  "id" : "HighLevel_PaulinePolyanski",
  "type" : "collection",
  "entry" : [{
    "fullUrl" : "http://cancerscreeningcds.github.io/crcsm-cds/CarePlan/58",
    "resource" : {
      "resourceType" : "CarePlan",
      "id" : "58",
      "text" : {
        "status" : "generated",
        "div" : "<div xmlns=\"http://www.w3.org/1999/xhtml\"><a name=\"CarePlan_58\"> </a><p class=\"res-header-id\"><b>Generated Narrative: CarePlan 58</b></p><a name=\"58\"> </a><a name=\"hc58\"> </a><a name=\"58-en-US\"> </a><p><b>instantiatesCanonical</b>: <a href=\"PlanDefinition-HighLevel.html\">High Level Flow</a></p><p><b>status</b>: Draft</p><p><b>intent</b>: Proposal</p><p><b>subject</b>: <a href=\"Bundle-PaulinePolyanski.html#Patient_PaulinePolyanski\">Pauline Polyasnki</a></p><p><b>created</b>: 2024-12-10 00:00:00+0000</p><h3>Activities</h3><table class=\"grid\"><tr><td style=\"display: none\">-</td><td><b>Reference</b></td></tr><tr><td style=\"display: none\">*</td><td><a href=\"Bundle-HighLevel_PaulinePolyanski.html#RequestGroup_59\">Bundle: type = collection</a></td></tr></table></div>"
      },
      "instantiatesCanonical" : ["http://cancerscreeningcds.github.io/crcsm-cds/PlanDefinition/HighLevel"],
      "status" : "draft",
      "intent" : "proposal",
      "subject" : {
        "reference" : "Patient/PaulinePolyanski",
        "display" : "Pauline Polyasnki"
      },
      "created" : "2024-12-10T00:00:00.0Z",
      "activity" : [{
        "reference" : {
          "reference" : "RequestGroup/59"
        }
      }]
    }
  },
  {
    "fullUrl" : "http://cancerscreeningcds.github.io/crcsm-cds/RequestGroup/59",
    "resource" : {
      "resourceType" : "RequestGroup",
      "id" : "59",
      "text" : {
        "status" : "generated",
        "div" : "<div xmlns=\"http://www.w3.org/1999/xhtml\"><a name=\"RequestGroup_59\"> </a><p class=\"res-header-id\"><b>Generated Narrative: RequestGroup 59</b></p><a name=\"59\"> </a><a name=\"hc59\"> </a><a name=\"59-en-US\"> </a><p><b>instantiatesCanonical</b>: <a href=\"PlanDefinition-HighLevel.html\">High Level Flow</a></p><p><b>status</b>: Draft</p><p><b>intent</b>: Proposal</p><p><b>subject</b>: <a href=\"Bundle-PaulinePolyanski.html#Patient_PaulinePolyanski\">Pauline Polyasnki</a></p><blockquote><p><b>action</b></p><blockquote><p><b>id</b></p>61</blockquote><p><b>title</b>: Primary Screening Decision</p><p><b>description</b>: Primary Screening Decision pathway.</p><p><b>resource</b>: <a href=\"Bundle-HighLevel_PaulinePolyanski.html#CarePlan_62\">Bundle: type = collection</a></p></blockquote></div>"
      },
      "instantiatesCanonical" : ["http://cancerscreeningcds.github.io/crcsm-cds/PlanDefinition/HighLevel"],
      "status" : "draft",
      "intent" : "proposal",
      "subject" : {
        "reference" : "Patient/PaulinePolyanski",
        "display" : "Pauline Polyasnki"
      },
      "action" : [{
        "id" : "61",
        "title" : "Primary Screening Decision",
        "description" : "Primary Screening Decision pathway.",
        "resource" : {
          "reference" : "CarePlan/62"
        }
      }]
    }
  },
  {
    "fullUrl" : "http://cancerscreeningcds.github.io/crcsm-cds/CarePlan/62",
    "resource" : {
      "resourceType" : "CarePlan",
      "id" : "62",
      "text" : {
        "status" : "generated",
        "div" : "<div xmlns=\"http://www.w3.org/1999/xhtml\"><a name=\"CarePlan_62\"> </a><p class=\"res-header-id\"><b>Generated Narrative: CarePlan 62</b></p><a name=\"62\"> </a><a name=\"hc62\"> </a><a name=\"62-en-US\"> </a><p><b>instantiatesCanonical</b>: <a href=\"PlanDefinition-PrimaryScreeningDecision.html\">Primary Screening Decision</a></p><p><b>status</b>: option</p><p><b>intent</b>: Proposal</p><p><b>subject</b>: <a href=\"Bundle-PaulinePolyanski.html#Patient_PaulinePolyanski\">Pauline Polyasnki</a></p><p><b>created</b>: 2024-12-10 00:00:00+0000</p><h3>Activities</h3><table class=\"grid\"><tr><td style=\"display: none\">-</td><td><b>Reference</b></td></tr><tr><td style=\"display: none\">*</td><td><a href=\"Bundle-HighLevel_PaulinePolyanski.html#RequestGroup_63\">Bundle: type = collection</a></td></tr></table></div>"
      },
      "instantiatesCanonical" : ["http://cancerscreeningcds.github.io/crcsm-cds/PlanDefinition/PrimaryScreeningDecision"],
      "status" : "option",
      "intent" : "proposal",
      "subject" : {
        "reference" : "Patient/PaulinePolyanski",
        "display" : "Pauline Polyasnki"
      },
      "created" : "2024-12-10T00:00:00.0Z",
      "activity" : [{
        "reference" : {
          "reference" : "RequestGroup/63"
        }
      }]
    }
  },
  {
    "fullUrl" : "http://cancerscreeningcds.github.io/crcsm-cds/RequestGroup/63",
    "resource" : {
      "resourceType" : "RequestGroup",
      "id" : "63",
      "text" : {
        "status" : "generated",
        "div" : "<div xmlns=\"http://www.w3.org/1999/xhtml\"><a name=\"RequestGroup_63\"> </a><p class=\"res-header-id\"><b>Generated Narrative: RequestGroup 63</b></p><a name=\"63\"> </a><a name=\"hc63\"> </a><a name=\"63-en-US\"> </a><p><b>instantiatesCanonical</b>: <a href=\"PlanDefinition-PrimaryScreeningDecision.html\">Primary Screening Decision</a></p><p><b>status</b>: Draft</p><p><b>intent</b>: Proposal</p><p><b>subject</b>: <a href=\"Bundle-PaulinePolyanski.html#Patient_PaulinePolyanski\">Pauline Polyasnki</a></p><blockquote><p><b>action</b></p><blockquote><p><b>id</b></p>HistoryPolypsIncreasedRisk</blockquote><p><b>title</b>: Post-polypectomy surveillance</p><p><b>description</b>: Follow endoscopist-recommended interval. </p><h3>Documentations</h3><table class=\"grid\"><tr><td style=\"display: none\">-</td><td><b>Type</b></td><td><b>Label</b></td><td><b>Display</b></td><td><b>Citation</b></td></tr><tr><td style=\"display: none\">*</td><td>Citation</td><td>USMSTF Follow-Up After Colonoscopy and Polypectomy (2020)</td><td>Recommendations for Follow-Up After Colonoscopy and Polypectomy: A Consensus Update by the US Multi-Society Task Force on Colorectal Cancer</td><td><div><p>Gupta, S., et al. (2020). Recommendations for Follow-Up After Colonoscopy and Polypectomy: A Consensus Update by the US Multi-Society Task Force on Colorectal Cancer. Gastroenterology, 158(4), 1131–1153.e5. https://doi.org/10.1053/j.gastro.2019.10.026</p>\n</div></td></tr></table><p><b>resource</b>: <a href=\"Bundle-HighLevel_PaulinePolyanski.html#ServiceRequest_64\">Bundle: type = collection</a></p></blockquote></div>"
      },
      "instantiatesCanonical" : ["http://cancerscreeningcds.github.io/crcsm-cds/PlanDefinition/PrimaryScreeningDecision"],
      "status" : "draft",
      "intent" : "proposal",
      "subject" : {
        "reference" : "Patient/PaulinePolyanski",
        "display" : "Pauline Polyasnki"
      },
      "action" : [{
        "id" : "HistoryPolypsIncreasedRisk",
        "title" : "Post-polypectomy surveillance",
        "description" : "Follow endoscopist-recommended interval. ",
        "documentation" : [{
          "type" : "citation",
          "label" : "USMSTF Follow-Up After Colonoscopy and Polypectomy (2020)",
          "display" : "Recommendations for Follow-Up After Colonoscopy and Polypectomy: A Consensus Update by the US Multi-Society Task Force on Colorectal Cancer",
          "citation" : "Gupta, S., et al. (2020). Recommendations for Follow-Up After Colonoscopy and Polypectomy: A Consensus Update by the US Multi-Society Task Force on Colorectal Cancer. Gastroenterology, 158(4), 1131–1153.e5. https://doi.org/10.1053/j.gastro.2019.10.026"
        }],
        "resource" : {
          "reference" : "ServiceRequest/64"
        }
      }]
    }
  },
  {
    "fullUrl" : "http://cancerscreeningcds.github.io/crcsm-cds/ServiceRequest/64",
    "resource" : {
      "resourceType" : "ServiceRequest",
      "id" : "64",
      "text" : {
        "status" : "generated",
        "div" : "<div xmlns=\"http://www.w3.org/1999/xhtml\"><a name=\"ServiceRequest_64\"> </a><p class=\"res-header-id\"><b>Generated Narrative: ServiceRequest 64</b></p><a name=\"64\"> </a><a name=\"hc64\"> </a><a name=\"64-en-US\"> </a><p><b>basedOn</b>: <a href=\"ActivityDefinition-ColorectalCancerScreeningServiceRequest.html\">Colorectal Cancer Screening Service Request</a></p><p><b>status</b>: option</p><p><b>intent</b>: Proposal</p><p><b>code</b>: <span title=\"Codes:{http://cancerscreeningcds.github.io/crcsm-cds/CodeSystem/plan-definition-action-code-system increasedriskscreening}\">Increased risk screening for colorectal cancer</span></p><p><b>subject</b>: <a href=\"Bundle-PaulinePolyanski.html#Patient_PaulinePolyanski\">Pauline Polyasnki</a></p><p><b>reasonCode</b>: <span title=\"Codes:{http://cancerscreeningcds.github.io/crcsm-cds/CodeSystem/plan-definition-action-reason-code-system historyofprecancerouspolyps}\">History of potentially precancerous polyps</span></p></div>"
      },
      "basedOn" : [{
        "reference" : "http://cancerscreeningcds.github.io/crcsm-cds/ActivityDefinition/ColorectalCancerScreeningServiceRequest"
      }],
      "status" : "option",
      "intent" : "proposal",
      "code" : {
        "coding" : [{
          "system" : "http://cancerscreeningcds.github.io/crcsm-cds/CodeSystem/plan-definition-action-code-system",
          "code" : "increasedriskscreening",
          "display" : "Increased risk screening for colorectal cancer"
        }]
      },
      "subject" : {
        "reference" : "Patient/PaulinePolyanski",
        "display" : "Pauline Polyasnki"
      },
      "reasonCode" : [{
        "coding" : [{
          "system" : "http://cancerscreeningcds.github.io/crcsm-cds/CodeSystem/plan-definition-action-reason-code-system",
          "code" : "historyofprecancerouspolyps",
          "display" : "History of potentially precancerous polyps"
        }]
      }]
    }
  }]
}