{
  "resourceType" : "Bundle",
  "id" : "HighLevel_EduardElder",
  "type" : "collection",
  "entry" : [{
    "fullUrl" : "http://cancerscreeningcds.github.io/crcsm-cds/CarePlan/8",
    "resource" : {
      "resourceType" : "CarePlan",
      "id" : "8",
      "text" : {
        "status" : "generated",
        "div" : "<div xmlns=\"http://www.w3.org/1999/xhtml\"><a name=\"CarePlan_8\"> </a><p class=\"res-header-id\"><b>Generated Narrative: CarePlan 8</b></p><a name=\"8\"> </a><a name=\"hc8\"> </a><a name=\"8-en-US\"> </a><p><b>instantiatesCanonical</b>: <a href=\"PlanDefinition-HighLevel.html\">High Level Flow</a></p><p><b>status</b>: Draft</p><p><b>intent</b>: Proposal</p><p><b>subject</b>: <a href=\"Bundle-EduardElder.html#Patient_EduardElder\">Eduard Elder</a></p><p><b>created</b>: 2024-12-10 00:00:00+0000</p><h3>Activities</h3><table class=\"grid\"><tr><td style=\"display: none\">-</td><td><b>Reference</b></td></tr><tr><td style=\"display: none\">*</td><td><a href=\"Bundle-HighLevel_EduardElder.html#RequestGroup_9\">Bundle: type = collection</a></td></tr></table></div>"
      },
      "instantiatesCanonical" : ["http://cancerscreeningcds.github.io/crcsm-cds/PlanDefinition/HighLevel"],
      "status" : "draft",
      "intent" : "proposal",
      "subject" : {
        "reference" : "Patient/EduardElder",
        "display" : "Eduard Elder"
      },
      "created" : "2024-12-10T00:00:00.0Z",
      "activity" : [{
        "reference" : {
          "reference" : "RequestGroup/9"
        }
      }]
    }
  },
  {
    "fullUrl" : "http://cancerscreeningcds.github.io/crcsm-cds/RequestGroup/9",
    "resource" : {
      "resourceType" : "RequestGroup",
      "id" : "9",
      "text" : {
        "status" : "generated",
        "div" : "<div xmlns=\"http://www.w3.org/1999/xhtml\"><a name=\"RequestGroup_9\"> </a><p class=\"res-header-id\"><b>Generated Narrative: RequestGroup 9</b></p><a name=\"9\"> </a><a name=\"hc9\"> </a><a name=\"9-en-US\"> </a><p><b>instantiatesCanonical</b>: <a href=\"PlanDefinition-HighLevel.html\">High Level Flow</a></p><p><b>status</b>: Draft</p><p><b>intent</b>: Proposal</p><p><b>subject</b>: <a href=\"Bundle-EduardElder.html#Patient_EduardElder\">Eduard Elder</a></p><blockquote><p><b>action</b></p><blockquote><p><b>id</b></p>11</blockquote><p><b>title</b>: Primary Screening Decision</p><p><b>description</b>: Primary Screening Decision pathway.</p><p><b>resource</b>: <a href=\"Bundle-HighLevel_EduardElder.html#CarePlan_12\">Bundle: type = collection</a></p></blockquote></div>"
      },
      "instantiatesCanonical" : ["http://cancerscreeningcds.github.io/crcsm-cds/PlanDefinition/HighLevel"],
      "status" : "draft",
      "intent" : "proposal",
      "subject" : {
        "reference" : "Patient/EduardElder",
        "display" : "Eduard Elder"
      },
      "action" : [{
        "id" : "11",
        "title" : "Primary Screening Decision",
        "description" : "Primary Screening Decision pathway.",
        "resource" : {
          "reference" : "CarePlan/12"
        }
      }]
    }
  },
  {
    "fullUrl" : "http://cancerscreeningcds.github.io/crcsm-cds/CarePlan/12",
    "resource" : {
      "resourceType" : "CarePlan",
      "id" : "12",
      "text" : {
        "status" : "generated",
        "div" : "<div xmlns=\"http://www.w3.org/1999/xhtml\"><a name=\"CarePlan_12\"> </a><p class=\"res-header-id\"><b>Generated Narrative: CarePlan 12</b></p><a name=\"12\"> </a><a name=\"hc12\"> </a><a name=\"12-en-US\"> </a><p><b>instantiatesCanonical</b>: <a href=\"PlanDefinition-PrimaryScreeningDecision.html\">Primary Screening Decision</a></p><p><b>status</b>: option</p><p><b>intent</b>: Proposal</p><p><b>subject</b>: <a href=\"Bundle-EduardElder.html#Patient_EduardElder\">Eduard Elder</a></p><p><b>created</b>: 2024-12-10 00:00:00+0000</p><h3>Activities</h3><table class=\"grid\"><tr><td style=\"display: none\">-</td><td><b>Reference</b></td></tr><tr><td style=\"display: none\">*</td><td><a href=\"Bundle-HighLevel_EduardElder.html#RequestGroup_13\">Bundle: type = collection</a></td></tr></table></div>"
      },
      "instantiatesCanonical" : ["http://cancerscreeningcds.github.io/crcsm-cds/PlanDefinition/PrimaryScreeningDecision"],
      "status" : "option",
      "intent" : "proposal",
      "subject" : {
        "reference" : "Patient/EduardElder",
        "display" : "Eduard Elder"
      },
      "created" : "2024-12-10T00:00:00.0Z",
      "activity" : [{
        "reference" : {
          "reference" : "RequestGroup/13"
        }
      }]
    }
  },
  {
    "fullUrl" : "http://cancerscreeningcds.github.io/crcsm-cds/RequestGroup/13",
    "resource" : {
      "resourceType" : "RequestGroup",
      "id" : "13",
      "text" : {
        "status" : "generated",
        "div" : "<div xmlns=\"http://www.w3.org/1999/xhtml\"><a name=\"RequestGroup_13\"> </a><p class=\"res-header-id\"><b>Generated Narrative: RequestGroup 13</b></p><a name=\"13\"> </a><a name=\"hc13\"> </a><a name=\"13-en-US\"> </a><p><b>instantiatesCanonical</b>: <a href=\"PlanDefinition-PrimaryScreeningDecision.html\">Primary Screening Decision</a></p><p><b>status</b>: Draft</p><p><b>intent</b>: Proposal</p><p><b>subject</b>: <a href=\"Bundle-EduardElder.html#Patient_EduardElder\">Eduard Elder</a></p><blockquote><p><b>action</b></p><blockquote><p><b>id</b></p>StopScreeningAge</blockquote><p><b>title</b>: Stop screening</p><p><b>description</b>: Evidence is lacking on benefits and harms of colorectal cancer screening for individuals aged 86 and older. Competing causes of mortality likely preclude survival benefit that would outweigh the harms of screening.</p><p><b>resource</b>: <a href=\"Bundle-HighLevel_EduardElder.html#CommunicationRequest_14\">Bundle: type = collection</a></p></blockquote></div>"
      },
      "instantiatesCanonical" : ["http://cancerscreeningcds.github.io/crcsm-cds/PlanDefinition/PrimaryScreeningDecision"],
      "status" : "draft",
      "intent" : "proposal",
      "subject" : {
        "reference" : "Patient/EduardElder",
        "display" : "Eduard Elder"
      },
      "action" : [{
        "id" : "StopScreeningAge",
        "title" : "Stop screening",
        "description" : "Evidence is lacking on benefits and harms of colorectal cancer screening for individuals aged 86 and older. Competing causes of mortality likely preclude survival benefit that would outweigh the harms of screening.",
        "resource" : {
          "reference" : "CommunicationRequest/14"
        }
      }]
    }
  },
  {
    "fullUrl" : "http://cancerscreeningcds.github.io/crcsm-cds/CommunicationRequest/14",
    "resource" : {
      "resourceType" : "CommunicationRequest",
      "id" : "14",
      "text" : {
        "status" : "generated",
        "div" : "<div xmlns=\"http://www.w3.org/1999/xhtml\"><a name=\"CommunicationRequest_14\"> </a><p class=\"res-header-id\"><b>Generated Narrative: CommunicationRequest 14</b></p><a name=\"14\"> </a><a name=\"hc14\"> </a><a name=\"14-en-US\"> </a><p><b>basedOn</b>: <a href=\"ActivityDefinition-CommunicateRecommendationStopScreening.html\">Communicate Recommendation to Stop Screening</a></p><p><b>status</b>: option</p><p><b>subject</b>: <a href=\"Bundle-EduardElder.html#Patient_EduardElder\">Eduard Elder</a></p><h3>Payloads</h3><table class=\"grid\"><tr><td style=\"display: none\">-</td><td><b>Content[x]</b></td></tr><tr><td style=\"display: none\">*</td><td>Stop screening</td></tr></table><p><b>reasonCode</b>: <span title=\"Codes:{http://cancerscreeningcds.github.io/crcsm-cds/CodeSystem/plan-definition-action-reason-code-system ageover86}\">Age over 86 years</span></p></div>"
      },
      "basedOn" : [{
        "reference" : "http://cancerscreeningcds.github.io/crcsm-cds/ActivityDefinition/CommunicateRecommendationStopScreening"
      }],
      "status" : "option",
      "subject" : {
        "reference" : "Patient/EduardElder",
        "display" : "Eduard Elder"
      },
      "payload" : [{
        "contentString" : "Stop screening"
      }],
      "reasonCode" : [{
        "coding" : [{
          "system" : "http://cancerscreeningcds.github.io/crcsm-cds/CodeSystem/plan-definition-action-reason-code-system",
          "code" : "ageover86",
          "display" : "Age over 86 years"
        }]
      }]
    }
  }]
}