{
  "resourceType": "Bundle",
  "id": "IsaacBrown",
  "type": "collection",
  "entry": [
    {
      "resource": {
        "resourceType": "Patient",
        "id": "IsaacBrown",
        "identifier": [
          {
            "value": "294-129-859",
            "type": {
              "coding": [
                {
                  "code": "MR",
                  "display": "Medical Record Number"
                }
              ]
            }
          }
        ],
        "name": [
          {
            "given": [
              "Isaac"
            ],
            "family": "Brown"
          }
        ],
        "gender": "male",
        "birthDate": "1997-06-19",
        "extension": [
          {
            "url": "http://hl7.org/fhir/us/core/StructureDefinition/us-core-race",
            "extension": [
              {
                "url": "text",
                "valueString": "White"
              }
            ]
          },
          {
            "url": "http://hl7.org/fhir/us/core/StructureDefinition/us-core-ethnicity",
            "extension": [
              {
                "url": "text",
                "valueString": "Not Hispanic or Latino"
              }
            ]
          }
        ]
      }
    },
    {
      "resource": {
        "resourceType": "Condition",
        "id": "ulcerative-colitis-active",
        "subject": {
          "reference": "Patient/IsaacBrown"
        },
        "clinicalStatus": {
          "coding": [
            {
              "system": "http://terminology.hl7.org/CodeSystem/condition-clinical",
              "code": "active",
              "display": "Active"
            }
          ]
        },
        "verificationStatus": {
          "coding": [
            {
              "system": "http://terminology.hl7.org/CodeSystem/condition-ver-status",
              "code": "confirmed",
              "display": "Confirmed"
            }
          ]
        },
        "category": [
          {
            "coding": [
              {
                "system": "http://terminology.hl7.org/CodeSystem/condition-category",
                "code": "problem-list-item",
                "display": "Problem List Item"
              }
            ]
          }
        ],
        "code": {
          "coding": [
            {
              "system": "http://snomed.info/sct",
              "code": "64766004",
              "display": "Ulcerative colitis (disorder)"
            }
          ]
        },
        "onsetDateTime": "2012-10-01"
      }
    },
    {
      "resource": {
        "resourceType": "DiagnosticReport",
        "id": "colonoscopy-report-1",
        "subject": {
          "reference": "Patient/IsaacBrown"
        },
        "status": "final",
        "code": {
          "coding": [
            {
              "system": "http://loinc.org",
              "code": "18746-8",
              "display": "Colonoscopy study"
            }
          ]
        },
        "conclusionCode": [
          {
            "coding": [
              {
                "system": "http://snomed.info/sct",
                "code": "78712000",
                "display": "Moderate chronic ulcerative colitis (disorder)"
              }
            ]
          }
        ],
        "effectiveDateTime": "2012-10-01T14:30:00.000Z"
      }
    },
    {
      "resource": {
        "resourceType": "DiagnosticReport",
        "id": "colonoscopy-report-2",
        "subject": {
          "reference": "Patient/IsaacBrown"
        },
        "status": "final",
        "code": {
          "coding": [
            {
              "system": "http://loinc.org",
              "code": "18746-8",
              "display": "Colonoscopy study"
            }
          ]
        },
        "conclusionCode": [
          {
            "coding": [
              {
                "system": "http://snomed.info/sct",
                "code": "78712000",
                "display": "Moderate chronic ulcerative colitis (disorder)"
              }
            ]
          }
        ],
        "effectiveDateTime": "2013-11-01T14:30:00.000Z"
      }
    },
    {
      "resource": {
        "resourceType": "DiagnosticReport",
        "id": "colonoscopy-report-3",
        "subject": {
          "reference": "Patient/IsaacBrown"
        },
        "status": "final",
        "code": {
          "coding": [
            {
              "system": "http://loinc.org",
              "code": "18746-8",
              "display": "Colonoscopy study"
            }
          ]
        },
        "conclusionCode": [
          {
            "coding": [
              {
                "system": "http://snomed.info/sct",
                "code": "78712000",
                "display": "Moderate chronic ulcerative colitis (disorder)"
              }
            ]
          }
        ],
        "effectiveDateTime": "2015-11-06T14:30:00.000Z"
      }
    },
    {
      "resource": {
        "resourceType": "DiagnosticReport",
        "id": "colonoscopy-report-neg-4",
        "subject": {
          "reference": "Patient/IsaacBrown"
        },
        "status": "final",
        "code": {
          "coding": [
            {
              "system": "http://loinc.org",
              "code": "18746-8",
              "display": "Colonoscopy study"
            }
          ]
        },
        "conclusionCode": [
          {
            "coding": [
              {
                "system": "http://snomed.info/sct",
                "code": "697969008",
                "display": "Ulcerative colitis in remission (disorder)"
              }
            ]
          }
        ],
        "effectiveDateTime": "2018-10-01T14:30:00.000Z"
      }
    },
    {
      "resource": {
        "resourceType": "Condition",
        "id": "ulcerative-colitis-remission",
        "subject": {
          "reference": "Patient/IsaacBrown"
        },
        "clinicalStatus": {
          "coding": [
            {
              "system": "http://terminology.hl7.org/CodeSystem/condition-clinical",
              "code": "remission",
              "display": "Remission"
            }
          ]
        },
        "verificationStatus": {
          "coding": [
            {
              "system": "http://terminology.hl7.org/CodeSystem/condition-ver-status",
              "code": "confirmed",
              "display": "Confirmed"
            }
          ]
        },
        "category": [
          {
            "coding": [
              {
                "system": "http://terminology.hl7.org/CodeSystem/condition-category",
                "code": "problem-list-item",
                "display": "Problem List Item"
              }
            ]
          }
        ],
        "code": {
          "coding": [
            {
              "system": "http://snomed.info/sct",
              "code": "64766004",
              "display": "Ulcerative colitis (disorder)"
            }
          ]
        },
        "onsetDateTime": "2018-10-01"
      }
    },
    {
      "resource": {
        "resourceType": "DiagnosticReport",
        "id": "colonoscopy-report-neg-5",
        "subject": {
          "reference": "Patient/IsaacBrown"
        },
        "status": "final",
        "code": {
          "coding": [
            {
              "system": "http://loinc.org",
              "code": "18746-8",
              "display": "Colonoscopy study"
            }
          ]
        },
        "conclusionCode": [
          {
            "coding": [
              {
                "system": "http://snomed.info/sct",
                "code": "260385009",
                "display": "Negative (qualifier value)"
              }
            ]
          }
        ],
        "effectiveDateTime": "2021-10-01T14:30:00.000Z"
      }
    },
    {
      "resource": {
        "resourceType": "DiagnosticReport",
        "id": "colonoscopy-report-with-followup",
        "subject": {
          "reference": "Patient/IsaacBrown"
        },
        "status": "final",
        "code": {
          "coding": [
            {
              "system": "http://loinc.org",
              "code": "18746-8",
              "display": "Colonoscopy study"
            }
          ]
        },
        "result": [
          {
            "reference": "Observation/observation-1"
          }
        ],
        "effectiveDateTime": "2023-10-07T00:00:00.000Z"
      }
    },
    {
      "resource": {
        "resourceType": "Observation",
        "id": "observation-1",
        "subject": {
          "reference": "Patient/IsaacBrown"
        },
        "status": "final",
        "code": {
          "coding": [
            {
              "system": "http://snomed.info/sct",
              "code": "470191000124102",
              "display": "Colorectal cancer screening follow-up planning (procedure)"
            }
          ]
        },
        "valueQuantity": {
          "value": 3,
          "unit": "years",
          "code": "a",
          "system": "http://unitsofmeasure.org"
        },
        "effectiveDateTime": "2023-10-07T00:00:00.000Z"
      }
    },
    {
      "resource": {
        "resourceType": "Observation",
        "id": "observation-2",
        "subject": {
          "reference": "Patient/IsaacBrown"
        },
        "status": "final",
        "code": {
          "coding": [
            {
              "system": "http://loinc.org",
              "code": "18746-8",
              "display": "Colonoscopy study"
            }
          ]
        },
        "valueCodeableConcept": {
          "coding": [
            {
              "system": "http://snomed.info/sct",
              "code": "260385009",
              "display": "Negative (qualifier value)"
            }
          ]
        },
        "effectiveDateTime": "2023-10-07T00:00:00.000Z"
      }
    }
  ]
}