{
  "resourceType": "Bundle",
  "id": "eve-nextdueexists_no_act-determinedue",
  "type": "collection",
  "entry": [
    {
      "resource": {
        "resourceType": "Patient",
        "id": "a16ef9be-f328-4ebf-aeb2-cacab6133bf2",
        "name": [
          {
            "given": [
              "Joanne"
            ],
            "family": "Smith"
          }
        ],
        "gender": "other",
        "birthDate": "1971-01-01",
        "extension": [
          {
            "url": "http://hl7.org/fhir/us/core/StructureDefinition/us-core-birthsex",
            "valueCode": "F"
          }
        ]
      }
    },
    {
      "resource": {
        "resourceType": "CarePlan",
        "id": "58e0cafb-26f6-411a-85b0-58d0a94d6520",
        "subject": {
          "reference": "Patient/a16ef9be-f328-4ebf-aeb2-cacab6133bf2"
        },
        "status": "active",
        "created": "2024-06-01",
        "category": [
          {
            "coding": [
              {
                "system": "http://snomed.info/sct",
                "code": "268548003",
                "display": "Screening for malignant neoplasm of large intestine (procedure)"
              }
            ]
          }
        ],
        "activity": [
          {
            "reference": {
              "reference": "RequestGroup/RequestGroup-1"
            }
          }
        ]
      }
    },
    {
      "resource": {
        "resourceType": "RequestGroup",
        "id": "RequestGroup-1",
        "subject": {
          "reference": "Patient/a16ef9be-f328-4ebf-aeb2-cacab6133bf2"
        },
        "status": "active",
        "intent": "order"
      }
    }
  ]
}