{
  "resourceType": "Bundle",
  "id": "eve-nextdueexists_yes_eve-DetermineIfDueForScreening_overdue_act-patientOutreach_act-orderTest",
  "type": "collection",
  "entry": [
    {
      "resource": {
        "resourceType": "Patient",
        "id": "adf62e16-fcfc-462a-9c00-2f8eda2a2aad",
        "name": [
          {
            "given": [
              "Joanne"
            ],
            "family": "Smith"
          }
        ],
        "gender": "other",
        "birthDate": "1971-01-01",
        "extension": [
          {
            "url": "http://hl7.org/fhir/us/core/StructureDefinition/us-core-birthsex",
            "valueCode": "F"
          }
        ]
      }
    },
    {
      "resource": {
        "resourceType": "CarePlan",
        "id": "63c425aa-c9d9-432a-a4c3-b0d6299c35de",
        "subject": {
          "reference": "Patient/adf62e16-fcfc-462a-9c00-2f8eda2a2aad"
        },
        "status": "active",
        "created": "2024-04-01",
        "category": [
          {
            "coding": [
              {
                "system": "http://snomed.info/sct",
                "code": "268548003",
                "display": "Screening for malignant neoplasm of large intestine (procedure)"
              }
            ]
          }
        ],
        "activity": [
          {
            "reference": {
              "reference": "RequestGroup/RequestGroup-1"
            }
          }
        ]
      }
    },
    {
      "resource": {
        "resourceType": "RequestGroup",
        "id": "RequestGroup-1",
        "subject": {
          "reference": "Patient/adf62e16-fcfc-462a-9c00-2f8eda2a2aad"
        },
        "status": "active",
        "intent": "order",
        "action": [
          {
            "code": [
              {
                "coding": [
                  {
                    "system": "http://snomed.info/sct",
                    "code": "268548003",
                    "display": "Screening for malignant neoplasm of large intestine (procedure)"
                  }
                ]
              }
            ],
            "timingTiming": {
              "event": [
                "2024-04-01"
              ],
              "repeat": {
                "frequency": 1,
                "period": 1,
                "periodUnit": "a"
              }
            }
          }
        ]
      }
    }
  ]
}